"ppt","subjectGroup","condition1","stim1","key","response","RT","stimFormat","trialNo","family","usvalence","warn","RWA_1","RWA_2","RWA_3","RWA_4","RWA_5","RWA_6","RWA_7","RWA_8","RWA_9","RWA_10","RWA_11","RWA_12","RWA_13","RWA_14","RWA_15","RWA14R","RWA12R","RWA8R","RWA10R","RWA6R","RWA4R","RWA2R","RWAscore"
"ABFSENNGIJYT",6,"ratings1","M1","na",5,3925,".jpg",9,"M",0.5,0.5,7,7,1,5,1,7,1,7,7,5,7,7,7,1,7,7,1,1,3,1,3,1,0.162095788152901
"ABFSENNGIJYT",6,"ratings1","M8","na",5,804,".jpg",16,"M",0.5,0.5,7,7,1,5,1,7,1,7,7,5,7,7,7,1,7,7,1,1,3,1,3,1,0.162095788152901
"ABFSENNGIJYT",6,"ratings1","B6","na",5,601,".jpg",6,"B",-0.5,0.5,7,7,1,5,1,7,1,7,7,5,7,7,7,1,7,7,1,1,3,1,3,1,0.162095788152901
"ABFSENNGIJYT",6,"ratings1","M2","na",5,701,".jpg",10,"M",0.5,0.5,7,7,1,5,1,7,1,7,7,5,7,7,7,1,7,7,1,1,3,1,3,1,0.162095788152901
"ABFSENNGIJYT",6,"ratings1","B2","na",5,701,".jpg",2,"B",-0.5,0.5,7,7,1,5,1,7,1,7,7,5,7,7,7,1,7,7,1,1,3,1,3,1,0.162095788152901
"ABFSENNGIJYT",6,"ratings1","B4","na",5,804,".jpg",4,"B",-0.5,0.5,7,7,1,5,1,7,1,7,7,5,7,7,7,1,7,7,1,1,3,1,3,1,0.162095788152901
"ABFSENNGIJYT",6,"ratings1","M7","na",5,804,".jpg",15,"M",0.5,0.5,7,7,1,5,1,7,1,7,7,5,7,7,7,1,7,7,1,1,3,1,3,1,0.162095788152901
"ABFSENNGIJYT",6,"ratings1","B7","na",5,701,".jpg",7,"B",-0.5,0.5,7,7,1,5,1,7,1,7,7,5,7,7,7,1,7,7,1,1,3,1,3,1,0.162095788152901
"ABFSENNGIJYT",6,"ratings1","B3","na",5,804,".jpg",3,"B",-0.5,0.5,7,7,1,5,1,7,1,7,7,5,7,7,7,1,7,7,1,1,3,1,3,1,0.162095788152901
"ABFSENNGIJYT",6,"ratings1","M3","na",9,2116,".jpg",11,"M",0.5,0.5,7,7,1,5,1,7,1,7,7,5,7,7,7,1,7,7,1,1,3,1,3,1,0.162095788152901
"ABFSENNGIJYT",6,"ratings1","B8","na",5,805,".jpg",8,"B",-0.5,0.5,7,7,1,5,1,7,1,7,7,5,7,7,7,1,7,7,1,1,3,1,3,1,0.162095788152901
"ABFSENNGIJYT",6,"ratings1","M5","na",9,2819,".jpg",13,"M",0.5,0.5,7,7,1,5,1,7,1,7,7,5,7,7,7,1,7,7,1,1,3,1,3,1,0.162095788152901
"ABFSENNGIJYT",6,"ratings1","B5","na",1,1510,".jpg",5,"B",-0.5,0.5,7,7,1,5,1,7,1,7,7,5,7,7,7,1,7,7,1,1,3,1,3,1,0.162095788152901
"ABFSENNGIJYT",6,"ratings1","M6","na",5,1814,".jpg",14,"M",0.5,0.5,7,7,1,5,1,7,1,7,7,5,7,7,7,1,7,7,1,1,3,1,3,1,0.162095788152901
"ABFSENNGIJYT",6,"ratings1","B1","na",5,1510,".jpg",1,"B",-0.5,0.5,7,7,1,5,1,7,1,7,7,5,7,7,7,1,7,7,1,1,3,1,3,1,0.162095788152901
"ABFSENNGIJYT",6,"ratings1","M4","na",9,2869,".jpg",12,"M",0.5,0.5,7,7,1,5,1,7,1,7,7,5,7,7,7,1,7,7,1,1,3,1,3,1,0.162095788152901
"ADJQKWVAEFBT",1,"ratings1","M6","na",6,15208,".jpg",14,"M",-0.5,0.5,7,7,7,6,5,5,7,7,6,5,4,7,5,7,6,1,1,1,3,3,2,1,0.37149579463836
"ADJQKWVAEFBT",1,"ratings1","M2","na",5,6790,".jpg",10,"M",-0.5,0.5,7,7,7,6,5,5,7,7,6,5,4,7,5,7,6,1,1,1,3,3,2,1,0.37149579463836
"ADJQKWVAEFBT",1,"ratings1","M4","na",9,1640,".jpg",12,"M",-0.5,0.5,7,7,7,6,5,5,7,7,6,5,4,7,5,7,6,1,1,1,3,3,2,1,0.37149579463836
"ADJQKWVAEFBT",1,"ratings1","M1","na",6,3585,".jpg",9,"M",-0.5,0.5,7,7,7,6,5,5,7,7,6,5,4,7,5,7,6,1,1,1,3,3,2,1,0.37149579463836
"ADJQKWVAEFBT",1,"ratings1","M5","na",5,2328,".jpg",13,"M",-0.5,0.5,7,7,7,6,5,5,7,7,6,5,4,7,5,7,6,1,1,1,3,3,2,1,0.37149579463836
"ADJQKWVAEFBT",1,"ratings1","B8","na",3,2650,".jpg",8,"B",0.5,0.5,7,7,7,6,5,5,7,7,6,5,4,7,5,7,6,1,1,1,3,3,2,1,0.37149579463836
"ADJQKWVAEFBT",1,"ratings1","M7","na",2,1527,".jpg",15,"M",-0.5,0.5,7,7,7,6,5,5,7,7,6,5,4,7,5,7,6,1,1,1,3,3,2,1,0.37149579463836
"ADJQKWVAEFBT",1,"ratings1","M3","na",4,1824,".jpg",11,"M",-0.5,0.5,7,7,7,6,5,5,7,7,6,5,4,7,5,7,6,1,1,1,3,3,2,1,0.37149579463836
"ADJQKWVAEFBT",1,"ratings1","B4","na",5,2942,".jpg",4,"B",0.5,0.5,7,7,7,6,5,5,7,7,6,5,4,7,5,7,6,1,1,1,3,3,2,1,0.37149579463836
"ADJQKWVAEFBT",1,"ratings1","B5","na",1,3944,".jpg",5,"B",0.5,0.5,7,7,7,6,5,5,7,7,6,5,4,7,5,7,6,1,1,1,3,3,2,1,0.37149579463836
"ADJQKWVAEFBT",1,"ratings1","B1","na",4,1993,".jpg",1,"B",0.5,0.5,7,7,7,6,5,5,7,7,6,5,4,7,5,7,6,1,1,1,3,3,2,1,0.37149579463836
"ADJQKWVAEFBT",1,"ratings1","B2","na",9,1486,".jpg",2,"B",0.5,0.5,7,7,7,6,5,5,7,7,6,5,4,7,5,7,6,1,1,1,3,3,2,1,0.37149579463836
"ADJQKWVAEFBT",1,"ratings1","B7","na",8,1063,".jpg",7,"B",0.5,0.5,7,7,7,6,5,5,7,7,6,5,4,7,5,7,6,1,1,1,3,3,2,1,0.37149579463836
"ADJQKWVAEFBT",1,"ratings1","B3","na",5,1415,".jpg",3,"B",0.5,0.5,7,7,7,6,5,5,7,7,6,5,4,7,5,7,6,1,1,1,3,3,2,1,0.37149579463836
"ADJQKWVAEFBT",1,"ratings1","B6","na",7,3280,".jpg",6,"B",0.5,0.5,7,7,7,6,5,5,7,7,6,5,4,7,5,7,6,1,1,1,3,3,2,1,0.37149579463836
"ADJQKWVAEFBT",1,"ratings1","M8","na",2,3312,".jpg",16,"M",-0.5,0.5,7,7,7,6,5,5,7,7,6,5,4,7,5,7,6,1,1,1,3,3,2,1,0.37149579463836
"AGFXVNFITYLS",2,"ratings1","M7","na",1,21414,".jpg",15,"M",0.5,0.5,5,3,4,7,6,1,4,7,3,4,7,4,2,3,7,5,4,1,4,7,1,5,0.685595804366549
"AGFXVNFITYLS",2,"ratings1","M2","na",5,3529,".jpg",10,"M",0.5,0.5,5,3,4,7,6,1,4,7,3,4,7,4,2,3,7,5,4,1,4,7,1,5,0.685595804366549
"AGFXVNFITYLS",2,"ratings1","B8","na",3,1023,".jpg",8,"B",-0.5,0.5,5,3,4,7,6,1,4,7,3,4,7,4,2,3,7,5,4,1,4,7,1,5,0.685595804366549
"AGFXVNFITYLS",2,"ratings1","M6","na",2,2091,".jpg",14,"M",0.5,0.5,5,3,4,7,6,1,4,7,3,4,7,4,2,3,7,5,4,1,4,7,1,5,0.685595804366549
"AGFXVNFITYLS",2,"ratings1","B6","na",9,16688,".jpg",6,"B",-0.5,0.5,5,3,4,7,6,1,4,7,3,4,7,4,2,3,7,5,4,1,4,7,1,5,0.685595804366549
"AGFXVNFITYLS",2,"ratings1","B3","na",9,7194,".jpg",3,"B",-0.5,0.5,5,3,4,7,6,1,4,7,3,4,7,4,2,3,7,5,4,1,4,7,1,5,0.685595804366549
"AGFXVNFITYLS",2,"ratings1","B4","na",9,1561,".jpg",4,"B",-0.5,0.5,5,3,4,7,6,1,4,7,3,4,7,4,2,3,7,5,4,1,4,7,1,5,0.685595804366549
"AGFXVNFITYLS",2,"ratings1","M1","na",2,41514,".jpg",9,"M",0.5,0.5,5,3,4,7,6,1,4,7,3,4,7,4,2,3,7,5,4,1,4,7,1,5,0.685595804366549
"AGFXVNFITYLS",2,"ratings1","M4","na",2,1200,".jpg",12,"M",0.5,0.5,5,3,4,7,6,1,4,7,3,4,7,4,2,3,7,5,4,1,4,7,1,5,0.685595804366549
"AGFXVNFITYLS",2,"ratings1","B1","na",9,1058,".jpg",1,"B",-0.5,0.5,5,3,4,7,6,1,4,7,3,4,7,4,2,3,7,5,4,1,4,7,1,5,0.685595804366549
"AGFXVNFITYLS",2,"ratings1","M3","na",5,1315,".jpg",11,"M",0.5,0.5,5,3,4,7,6,1,4,7,3,4,7,4,2,3,7,5,4,1,4,7,1,5,0.685595804366549
"AGFXVNFITYLS",2,"ratings1","B2","na",9,858,".jpg",2,"B",-0.5,0.5,5,3,4,7,6,1,4,7,3,4,7,4,2,3,7,5,4,1,4,7,1,5,0.685595804366549
"AGFXVNFITYLS",2,"ratings1","M8","na",2,1514,".jpg",16,"M",0.5,0.5,5,3,4,7,6,1,4,7,3,4,7,4,2,3,7,5,4,1,4,7,1,5,0.685595804366549
"AGFXVNFITYLS",2,"ratings1","B5","na",8,13891,".jpg",5,"B",-0.5,0.5,5,3,4,7,6,1,4,7,3,4,7,4,2,3,7,5,4,1,4,7,1,5,0.685595804366549
"AGFXVNFITYLS",2,"ratings1","B7","na",8,824,".jpg",7,"B",-0.5,0.5,5,3,4,7,6,1,4,7,3,4,7,4,2,3,7,5,4,1,4,7,1,5,0.685595804366549
"AGFXVNFITYLS",2,"ratings1","M5","na",1,1249,".jpg",13,"M",0.5,0.5,5,3,4,7,6,1,4,7,3,4,7,4,2,3,7,5,4,1,4,7,1,5,0.685595804366549
"AIIGGHNCBZVT",4,"ratings1","B1","na",5,9206,".jpg",1,"B",-0.5,-0.5,7,7,7,7,1,7,2,3,4,7,2,2,7,7,5,1,6,5,1,1,1,1,-0.0473042183325585
"AIIGGHNCBZVT",4,"ratings1","M1","na",5,2731,".jpg",9,"M",0.5,-0.5,7,7,7,7,1,7,2,3,4,7,2,2,7,7,5,1,6,5,1,1,1,1,-0.0473042183325585
"AIIGGHNCBZVT",4,"ratings1","M3","na",5,8263,".jpg",11,"M",0.5,-0.5,7,7,7,7,1,7,2,3,4,7,2,2,7,7,5,1,6,5,1,1,1,1,-0.0473042183325585
"AIIGGHNCBZVT",4,"ratings1","B2","na",6,2076,".jpg",2,"B",-0.5,-0.5,7,7,7,7,1,7,2,3,4,7,2,2,7,7,5,1,6,5,1,1,1,1,-0.0473042183325585
"AIIGGHNCBZVT",4,"ratings1","M4","na",5,530,".jpg",12,"M",0.5,-0.5,7,7,7,7,1,7,2,3,4,7,2,2,7,7,5,1,6,5,1,1,1,1,-0.0473042183325585
"AIIGGHNCBZVT",4,"ratings1","M5","na",4,1186,".jpg",13,"M",0.5,-0.5,7,7,7,7,1,7,2,3,4,7,2,2,7,7,5,1,6,5,1,1,1,1,-0.0473042183325585
"AIIGGHNCBZVT",4,"ratings1","M2","na",7,1874,".jpg",10,"M",0.5,-0.5,7,7,7,7,1,7,2,3,4,7,2,2,7,7,5,1,6,5,1,1,1,1,-0.0473042183325585
"AIIGGHNCBZVT",4,"ratings1","M7","na",5,935,".jpg",15,"M",0.5,-0.5,7,7,7,7,1,7,2,3,4,7,2,2,7,7,5,1,6,5,1,1,1,1,-0.0473042183325585
"AIIGGHNCBZVT",4,"ratings1","B6","na",5,856,".jpg",6,"B",-0.5,-0.5,7,7,7,7,1,7,2,3,4,7,2,2,7,7,5,1,6,5,1,1,1,1,-0.0473042183325585
"AIIGGHNCBZVT",4,"ratings1","B3","na",7,640,".jpg",3,"B",-0.5,-0.5,7,7,7,7,1,7,2,3,4,7,2,2,7,7,5,1,6,5,1,1,1,1,-0.0473042183325585
"AIIGGHNCBZVT",4,"ratings1","B7","na",4,1343,".jpg",7,"B",-0.5,-0.5,7,7,7,7,1,7,2,3,4,7,2,2,7,7,5,1,6,5,1,1,1,1,-0.0473042183325585
"AIIGGHNCBZVT",4,"ratings1","B4","na",3,1060,".jpg",4,"B",-0.5,-0.5,7,7,7,7,1,7,2,3,4,7,2,2,7,7,5,1,6,5,1,1,1,1,-0.0473042183325585
"AIIGGHNCBZVT",4,"ratings1","M6","na",6,1016,".jpg",14,"M",0.5,-0.5,7,7,7,7,1,7,2,3,4,7,2,2,7,7,5,1,6,5,1,1,1,1,-0.0473042183325585
"AIIGGHNCBZVT",4,"ratings1","B8","na",3,998,".jpg",8,"B",-0.5,-0.5,7,7,7,7,1,7,2,3,4,7,2,2,7,7,5,1,6,5,1,1,1,1,-0.0473042183325585
"AIIGGHNCBZVT",4,"ratings1","M8","na",6,515,".jpg",16,"M",0.5,-0.5,7,7,7,7,1,7,2,3,4,7,2,2,7,7,5,1,6,5,1,1,1,1,-0.0473042183325585
"AIIGGHNCBZVT",4,"ratings1","B5","na",3,982,".jpg",5,"B",-0.5,-0.5,7,7,7,7,1,7,2,3,4,7,2,2,7,7,5,1,6,5,1,1,1,1,-0.0473042183325585
"AJJXXEUQAGTD",1,"ratings1","B6","na",7,12572,".jpg",6,"B",0.5,0.5,1,7,3,7,1,7,1,7,1,7,1,7,1,7,1,1,1,1,1,1,1,1,-1.82720427345896
"AJJXXEUQAGTD",1,"ratings1","B2","na",6,3110,".jpg",2,"B",0.5,0.5,1,7,3,7,1,7,1,7,1,7,1,7,1,7,1,1,1,1,1,1,1,1,-1.82720427345896
"AJJXXEUQAGTD",1,"ratings1","M2","na",3,2520,".jpg",10,"M",-0.5,0.5,1,7,3,7,1,7,1,7,1,7,1,7,1,7,1,1,1,1,1,1,1,1,-1.82720427345896
"AJJXXEUQAGTD",1,"ratings1","M5","na",4,1314,".jpg",13,"M",-0.5,0.5,1,7,3,7,1,7,1,7,1,7,1,7,1,7,1,1,1,1,1,1,1,1,-1.82720427345896
"AJJXXEUQAGTD",1,"ratings1","B3","na",7,1733,".jpg",3,"B",0.5,0.5,1,7,3,7,1,7,1,7,1,7,1,7,1,7,1,1,1,1,1,1,1,1,-1.82720427345896
"AJJXXEUQAGTD",1,"ratings1","B4","na",7,1371,".jpg",4,"B",0.5,0.5,1,7,3,7,1,7,1,7,1,7,1,7,1,7,1,1,1,1,1,1,1,1,-1.82720427345896
"AJJXXEUQAGTD",1,"ratings1","M6","na",2,1704,".jpg",14,"M",-0.5,0.5,1,7,3,7,1,7,1,7,1,7,1,7,1,7,1,1,1,1,1,1,1,1,-1.82720427345896
"AJJXXEUQAGTD",1,"ratings1","M8","na",3,2061,".jpg",16,"M",-0.5,0.5,1,7,3,7,1,7,1,7,1,7,1,7,1,7,1,1,1,1,1,1,1,1,-1.82720427345896
"AJJXXEUQAGTD",1,"ratings1","M3","na",3,1805,".jpg",11,"M",-0.5,0.5,1,7,3,7,1,7,1,7,1,7,1,7,1,7,1,1,1,1,1,1,1,1,-1.82720427345896
"AJJXXEUQAGTD",1,"ratings1","B7","na",7,1349,".jpg",7,"B",0.5,0.5,1,7,3,7,1,7,1,7,1,7,1,7,1,7,1,1,1,1,1,1,1,1,-1.82720427345896
"AJJXXEUQAGTD",1,"ratings1","B1","na",7,1178,".jpg",1,"B",0.5,0.5,1,7,3,7,1,7,1,7,1,7,1,7,1,7,1,1,1,1,1,1,1,1,-1.82720427345896
"AJJXXEUQAGTD",1,"ratings1","M4","na",3,1558,".jpg",12,"M",-0.5,0.5,1,7,3,7,1,7,1,7,1,7,1,7,1,7,1,1,1,1,1,1,1,1,-1.82720427345896
"AJJXXEUQAGTD",1,"ratings1","M1","na",4,1468,".jpg",9,"M",-0.5,0.5,1,7,3,7,1,7,1,7,1,7,1,7,1,7,1,1,1,1,1,1,1,1,-1.82720427345896
"AJJXXEUQAGTD",1,"ratings1","M7","na",3,652,".jpg",15,"M",-0.5,0.5,1,7,3,7,1,7,1,7,1,7,1,7,1,7,1,1,1,1,1,1,1,1,-1.82720427345896
"AJJXXEUQAGTD",1,"ratings1","B5","na",6,1365,".jpg",5,"B",0.5,0.5,1,7,3,7,1,7,1,7,1,7,1,7,1,7,1,1,1,1,1,1,1,1,-1.82720427345896
"AJJXXEUQAGTD",1,"ratings1","B8","na",7,2108,".jpg",8,"B",0.5,0.5,1,7,3,7,1,7,1,7,1,7,1,7,1,7,1,1,1,1,1,1,1,1,-1.82720427345896
"AKLNPBHVJPOH",3,"ratings1","B3","na",9,13389,".jpg",3,"B",0.5,-0.5,7,7,1,3,1,7,1,7,7,2,1,7,7,1,7,7,1,1,6,1,5,1,0.109745786531536
"AKLNPBHVJPOH",3,"ratings1","B8","na",9,1930,".jpg",8,"B",0.5,-0.5,7,7,1,3,1,7,1,7,7,2,1,7,7,1,7,7,1,1,6,1,5,1,0.109745786531536
"AKLNPBHVJPOH",3,"ratings1","B7","na",9,640,".jpg",7,"B",0.5,-0.5,7,7,1,3,1,7,1,7,7,2,1,7,7,1,7,7,1,1,6,1,5,1,0.109745786531536
"AKLNPBHVJPOH",3,"ratings1","M1","na",9,361,".jpg",9,"M",-0.5,-0.5,7,7,1,3,1,7,1,7,7,2,1,7,7,1,7,7,1,1,6,1,5,1,0.109745786531536
"AKLNPBHVJPOH",3,"ratings1","M2","na",1,3768,".jpg",10,"M",-0.5,-0.5,7,7,1,3,1,7,1,7,7,2,1,7,7,1,7,7,1,1,6,1,5,1,0.109745786531536
"AKLNPBHVJPOH",3,"ratings1","M8","na",1,1651,".jpg",16,"M",-0.5,-0.5,7,7,1,3,1,7,1,7,7,2,1,7,7,1,7,7,1,1,6,1,5,1,0.109745786531536
"AKLNPBHVJPOH",3,"ratings1","B5","na",9,781,".jpg",5,"B",0.5,-0.5,7,7,1,3,1,7,1,7,7,2,1,7,7,1,7,7,1,1,6,1,5,1,0.109745786531536
"AKLNPBHVJPOH",3,"ratings1","B6","na",9,822,".jpg",6,"B",0.5,-0.5,7,7,1,3,1,7,1,7,7,2,1,7,7,1,7,7,1,1,6,1,5,1,0.109745786531536
"AKLNPBHVJPOH",3,"ratings1","M3","na",1,808,".jpg",11,"M",-0.5,-0.5,7,7,1,3,1,7,1,7,7,2,1,7,7,1,7,7,1,1,6,1,5,1,0.109745786531536
"AKLNPBHVJPOH",3,"ratings1","B1","na",9,931,".jpg",1,"B",0.5,-0.5,7,7,1,3,1,7,1,7,7,2,1,7,7,1,7,7,1,1,6,1,5,1,0.109745786531536
"AKLNPBHVJPOH",3,"ratings1","M4","na",1,1069,".jpg",12,"M",-0.5,-0.5,7,7,1,3,1,7,1,7,7,2,1,7,7,1,7,7,1,1,6,1,5,1,0.109745786531536
"AKLNPBHVJPOH",3,"ratings1","M5","na",1,510,".jpg",13,"M",-0.5,-0.5,7,7,1,3,1,7,1,7,7,2,1,7,7,1,7,7,1,1,6,1,5,1,0.109745786531536
"AKLNPBHVJPOH",3,"ratings1","B4","na",9,758,".jpg",4,"B",0.5,-0.5,7,7,1,3,1,7,1,7,7,2,1,7,7,1,7,7,1,1,6,1,5,1,0.109745786531536
"AKLNPBHVJPOH",3,"ratings1","M7","na",1,477,".jpg",15,"M",-0.5,-0.5,7,7,1,3,1,7,1,7,7,2,1,7,7,1,7,7,1,1,6,1,5,1,0.109745786531536
"AKLNPBHVJPOH",3,"ratings1","M6","na",1,550,".jpg",14,"M",-0.5,-0.5,7,7,1,3,1,7,1,7,7,2,1,7,7,1,7,7,1,1,6,1,5,1,0.109745786531536
"AKLNPBHVJPOH",3,"ratings1","B2","na",9,628,".jpg",2,"B",0.5,-0.5,7,7,1,3,1,7,1,7,7,2,1,7,7,1,7,7,1,1,6,1,5,1,0.109745786531536
"AMZIVDGOPDGA",7,"ratings1","M1","na",5,4550,".jpg",9,"M",-0.5,-0.5,4,4,4,5,4,4,4,4,5,4,4,4,4,5,5,3,4,4,4,4,3,4,0.423845796259725
"AMZIVDGOPDGA",7,"ratings1","M5","na",5,1067,".jpg",13,"M",-0.5,-0.5,4,4,4,5,4,4,4,4,5,4,4,4,4,5,5,3,4,4,4,4,3,4,0.423845796259725
"AMZIVDGOPDGA",7,"ratings1","M7","na",5,330,".jpg",15,"M",-0.5,-0.5,4,4,4,5,4,4,4,4,5,4,4,4,4,5,5,3,4,4,4,4,3,4,0.423845796259725
"AMZIVDGOPDGA",7,"ratings1","B6","na",5,307,".jpg",6,"B",0.5,-0.5,4,4,4,5,4,4,4,4,5,4,4,4,4,5,5,3,4,4,4,4,3,4,0.423845796259725
"AMZIVDGOPDGA",7,"ratings1","B8","na",5,331,".jpg",8,"B",0.5,-0.5,4,4,4,5,4,4,4,4,5,4,4,4,4,5,5,3,4,4,4,4,3,4,0.423845796259725
"AMZIVDGOPDGA",7,"ratings1","B4","na",5,247,".jpg",4,"B",0.5,-0.5,4,4,4,5,4,4,4,4,5,4,4,4,4,5,5,3,4,4,4,4,3,4,0.423845796259725
"AMZIVDGOPDGA",7,"ratings1","B2","na",5,247,".jpg",2,"B",0.5,-0.5,4,4,4,5,4,4,4,4,5,4,4,4,4,5,5,3,4,4,4,4,3,4,0.423845796259725
"AMZIVDGOPDGA",7,"ratings1","B5","na",5,231,".jpg",5,"B",0.5,-0.5,4,4,4,5,4,4,4,4,5,4,4,4,4,5,5,3,4,4,4,4,3,4,0.423845796259725
"AMZIVDGOPDGA",7,"ratings1","M4","na",5,243,".jpg",12,"M",-0.5,-0.5,4,4,4,5,4,4,4,4,5,4,4,4,4,5,5,3,4,4,4,4,3,4,0.423845796259725
"AMZIVDGOPDGA",7,"ratings1","B7","na",3,2324,".jpg",7,"B",0.5,-0.5,4,4,4,5,4,4,4,4,5,4,4,4,4,5,5,3,4,4,4,4,3,4,0.423845796259725
"AMZIVDGOPDGA",7,"ratings1","M2","na",5,1059,".jpg",10,"M",-0.5,-0.5,4,4,4,5,4,4,4,4,5,4,4,4,4,5,5,3,4,4,4,4,3,4,0.423845796259725
"AMZIVDGOPDGA",7,"ratings1","M6","na",5,331,".jpg",14,"M",-0.5,-0.5,4,4,4,5,4,4,4,4,5,4,4,4,4,5,5,3,4,4,4,4,3,4,0.423845796259725
"AMZIVDGOPDGA",7,"ratings1","B3","na",5,491,".jpg",3,"B",0.5,-0.5,4,4,4,5,4,4,4,4,5,4,4,4,4,5,5,3,4,4,4,4,3,4,0.423845796259725
"AMZIVDGOPDGA",7,"ratings1","B1","na",5,595,".jpg",1,"B",0.5,-0.5,4,4,4,5,4,4,4,4,5,4,4,4,4,5,5,3,4,4,4,4,3,4,0.423845796259725
"AMZIVDGOPDGA",7,"ratings1","M3","na",2,3990,".jpg",11,"M",-0.5,-0.5,4,4,4,5,4,4,4,4,5,4,4,4,4,5,5,3,4,4,4,4,3,4,0.423845796259725
"AMZIVDGOPDGA",7,"ratings1","M8","na",5,7581,".jpg",16,"M",-0.5,-0.5,4,4,4,5,4,4,4,4,5,4,4,4,4,5,5,3,4,4,4,4,3,4,0.423845796259725
"AVYYLICYKEFD",5,"ratings1","B1","na",5,2068,".jpg",1,"B",0.5,0.5,1,7,1,7,1,7,1,1,1,7,1,7,1,7,1,1,1,7,1,1,1,1,-1.6178042669735
"AVYYLICYKEFD",5,"ratings1","B2","na",5,250,".jpg",2,"B",0.5,0.5,1,7,1,7,1,7,1,1,1,7,1,7,1,7,1,1,1,7,1,1,1,1,-1.6178042669735
"AVYYLICYKEFD",5,"ratings1","B7","na",6,4660,".jpg",7,"B",0.5,0.5,1,7,1,7,1,7,1,1,1,7,1,7,1,7,1,1,1,7,1,1,1,1,-1.6178042669735
"AVYYLICYKEFD",5,"ratings1","B4","na",6,1718,".jpg",4,"B",0.5,0.5,1,7,1,7,1,7,1,1,1,7,1,7,1,7,1,1,1,7,1,1,1,1,-1.6178042669735
"AVYYLICYKEFD",5,"ratings1","B8","na",6,1068,".jpg",8,"B",0.5,0.5,1,7,1,7,1,7,1,1,1,7,1,7,1,7,1,1,1,7,1,1,1,1,-1.6178042669735
"AVYYLICYKEFD",5,"ratings1","M1","na",4,2743,".jpg",9,"M",-0.5,0.5,1,7,1,7,1,7,1,1,1,7,1,7,1,7,1,1,1,7,1,1,1,1,-1.6178042669735
"AVYYLICYKEFD",5,"ratings1","B5","na",4,21,".jpg",5,"B",0.5,0.5,1,7,1,7,1,7,1,1,1,7,1,7,1,7,1,1,1,7,1,1,1,1,-1.6178042669735
"AVYYLICYKEFD",5,"ratings1","B6","na",6,1094,".jpg",6,"B",0.5,0.5,1,7,1,7,1,7,1,1,1,7,1,7,1,7,1,1,1,7,1,1,1,1,-1.6178042669735
"AVYYLICYKEFD",5,"ratings1","M6","na",4,742,".jpg",14,"M",-0.5,0.5,1,7,1,7,1,7,1,1,1,7,1,7,1,7,1,1,1,7,1,1,1,1,-1.6178042669735
"AVYYLICYKEFD",5,"ratings1","B3","na",6,645,".jpg",3,"B",0.5,0.5,1,7,1,7,1,7,1,1,1,7,1,7,1,7,1,1,1,7,1,1,1,1,-1.6178042669735
"AVYYLICYKEFD",5,"ratings1","M5","na",4,661,".jpg",13,"M",-0.5,0.5,1,7,1,7,1,7,1,1,1,7,1,7,1,7,1,1,1,7,1,1,1,1,-1.6178042669735
"AVYYLICYKEFD",5,"ratings1","M4","na",5,1992,".jpg",12,"M",-0.5,0.5,1,7,1,7,1,7,1,1,1,7,1,7,1,7,1,1,1,7,1,1,1,1,-1.6178042669735
"AVYYLICYKEFD",5,"ratings1","M8","na",6,1430,".jpg",16,"M",-0.5,0.5,1,7,1,7,1,7,1,1,1,7,1,7,1,7,1,1,1,7,1,1,1,1,-1.6178042669735
"AVYYLICYKEFD",5,"ratings1","M7","na",4,854,".jpg",15,"M",-0.5,0.5,1,7,1,7,1,7,1,1,1,7,1,7,1,7,1,1,1,7,1,1,1,1,-1.6178042669735
"AVYYLICYKEFD",5,"ratings1","M3","na",5,174,".jpg",11,"M",-0.5,0.5,1,7,1,7,1,7,1,1,1,7,1,7,1,7,1,1,1,7,1,1,1,1,-1.6178042669735
"AVYYLICYKEFD",5,"ratings1","M2","na",4,75,".jpg",10,"M",-0.5,0.5,1,7,1,7,1,7,1,1,1,7,1,7,1,7,1,1,1,7,1,1,1,1,-1.6178042669735
"BAAUUPYTYYCB",4,"ratings1","B6","na",1,6512,".jpg",6,"B",-0.5,-0.5,4,5,4,4,3,4,3,2,6,2,5,5,3,3,3,5,3,6,6,4,4,3,0.528545799502455
"BAAUUPYTYYCB",4,"ratings1","M6","na",9,2323,".jpg",14,"M",0.5,-0.5,4,5,4,4,3,4,3,2,6,2,5,5,3,3,3,5,3,6,6,4,4,3,0.528545799502455
"BAAUUPYTYYCB",4,"ratings1","M1","na",5,4402,".jpg",9,"M",0.5,-0.5,4,5,4,4,3,4,3,2,6,2,5,5,3,3,3,5,3,6,6,4,4,3,0.528545799502455
"BAAUUPYTYYCB",4,"ratings1","M2","na",6,1539,".jpg",10,"M",0.5,-0.5,4,5,4,4,3,4,3,2,6,2,5,5,3,3,3,5,3,6,6,4,4,3,0.528545799502455
"BAAUUPYTYYCB",4,"ratings1","B7","na",5,3915,".jpg",7,"B",-0.5,-0.5,4,5,4,4,3,4,3,2,6,2,5,5,3,3,3,5,3,6,6,4,4,3,0.528545799502455
"BAAUUPYTYYCB",4,"ratings1","B8","na",4,1466,".jpg",8,"B",-0.5,-0.5,4,5,4,4,3,4,3,2,6,2,5,5,3,3,3,5,3,6,6,4,4,3,0.528545799502455
"BAAUUPYTYYCB",4,"ratings1","M8","na",6,3459,".jpg",16,"M",0.5,-0.5,4,5,4,4,3,4,3,2,6,2,5,5,3,3,3,5,3,6,6,4,4,3,0.528545799502455
"BAAUUPYTYYCB",4,"ratings1","B4","na",4,2419,".jpg",4,"B",-0.5,-0.5,4,5,4,4,3,4,3,2,6,2,5,5,3,3,3,5,3,6,6,4,4,3,0.528545799502455
"BAAUUPYTYYCB",4,"ratings1","M5","na",5,2188,".jpg",13,"M",0.5,-0.5,4,5,4,4,3,4,3,2,6,2,5,5,3,3,3,5,3,6,6,4,4,3,0.528545799502455
"BAAUUPYTYYCB",4,"ratings1","M7","na",2,1202,".jpg",15,"M",0.5,-0.5,4,5,4,4,3,4,3,2,6,2,5,5,3,3,3,5,3,6,6,4,4,3,0.528545799502455
"BAAUUPYTYYCB",4,"ratings1","M4","na",5,1619,".jpg",12,"M",0.5,-0.5,4,5,4,4,3,4,3,2,6,2,5,5,3,3,3,5,3,6,6,4,4,3,0.528545799502455
"BAAUUPYTYYCB",4,"ratings1","M3","na",6,410,".jpg",11,"M",0.5,-0.5,4,5,4,4,3,4,3,2,6,2,5,5,3,3,3,5,3,6,6,4,4,3,0.528545799502455
"BAAUUPYTYYCB",4,"ratings1","B2","na",4,338,".jpg",2,"B",-0.5,-0.5,4,5,4,4,3,4,3,2,6,2,5,5,3,3,3,5,3,6,6,4,4,3,0.528545799502455
"BAAUUPYTYYCB",4,"ratings1","B5","na",3,763,".jpg",5,"B",-0.5,-0.5,4,5,4,4,3,4,3,2,6,2,5,5,3,3,3,5,3,6,6,4,4,3,0.528545799502455
"BAAUUPYTYYCB",4,"ratings1","B1","na",8,571,".jpg",1,"B",-0.5,-0.5,4,5,4,4,3,4,3,2,6,2,5,5,3,3,3,5,3,6,6,4,4,3,0.528545799502455
"BAAUUPYTYYCB",4,"ratings1","B3","na",5,443,".jpg",3,"B",-0.5,-0.5,4,5,4,4,3,4,3,2,6,2,5,5,3,3,3,5,3,6,6,4,4,3,0.528545799502455
"BAVZKDSUECPF",3,"ratings1","B5","na",5,4336,".jpg",5,"B",0.5,-0.5,4,4,4,4,5,4,4,4,4,4,4,4,4,4,4,4,4,4,4,4,4,4,0.47619579788109
"BAVZKDSUECPF",3,"ratings1","M2","na",6,1716,".jpg",10,"M",-0.5,-0.5,4,4,4,4,5,4,4,4,4,4,4,4,4,4,4,4,4,4,4,4,4,4,0.47619579788109
"BAVZKDSUECPF",3,"ratings1","M6","na",9,1266,".jpg",14,"M",-0.5,-0.5,4,4,4,4,5,4,4,4,4,4,4,4,4,4,4,4,4,4,4,4,4,4,0.47619579788109
"BAVZKDSUECPF",3,"ratings1","B6","na",5,1040,".jpg",6,"B",0.5,-0.5,4,4,4,4,5,4,4,4,4,4,4,4,4,4,4,4,4,4,4,4,4,4,0.47619579788109
"BAVZKDSUECPF",3,"ratings1","M5","na",6,1538,".jpg",13,"M",-0.5,-0.5,4,4,4,4,5,4,4,4,4,4,4,4,4,4,4,4,4,4,4,4,4,4,0.47619579788109
"BAVZKDSUECPF",3,"ratings1","B7","na",4,1755,".jpg",7,"B",0.5,-0.5,4,4,4,4,5,4,4,4,4,4,4,4,4,4,4,4,4,4,4,4,4,4,0.47619579788109
"BAVZKDSUECPF",3,"ratings1","B2","na",5,1249,".jpg",2,"B",0.5,-0.5,4,4,4,4,5,4,4,4,4,4,4,4,4,4,4,4,4,4,4,4,4,4,0.47619579788109
"BAVZKDSUECPF",3,"ratings1","B8","na",6,1649,".jpg",8,"B",0.5,-0.5,4,4,4,4,5,4,4,4,4,4,4,4,4,4,4,4,4,4,4,4,4,4,0.47619579788109
"BAVZKDSUECPF",3,"ratings1","M4","na",6,1538,".jpg",12,"M",-0.5,-0.5,4,4,4,4,5,4,4,4,4,4,4,4,4,4,4,4,4,4,4,4,4,4,0.47619579788109
"BAVZKDSUECPF",3,"ratings1","M7","na",5,1096,".jpg",15,"M",-0.5,-0.5,4,4,4,4,5,4,4,4,4,4,4,4,4,4,4,4,4,4,4,4,4,4,0.47619579788109
"BAVZKDSUECPF",3,"ratings1","M8","na",5,2698,".jpg",16,"M",-0.5,-0.5,4,4,4,4,5,4,4,4,4,4,4,4,4,4,4,4,4,4,4,4,4,4,0.47619579788109
"BAVZKDSUECPF",3,"ratings1","B1","na",5,2035,".jpg",1,"B",0.5,-0.5,4,4,4,4,5,4,4,4,4,4,4,4,4,4,4,4,4,4,4,4,4,4,0.47619579788109
"BAVZKDSUECPF",3,"ratings1","M3","na",5,928,".jpg",11,"M",-0.5,-0.5,4,4,4,4,5,4,4,4,4,4,4,4,4,4,4,4,4,4,4,4,4,4,0.47619579788109
"BAVZKDSUECPF",3,"ratings1","B3","na",4,1376,".jpg",3,"B",0.5,-0.5,4,4,4,4,5,4,4,4,4,4,4,4,4,4,4,4,4,4,4,4,4,4,0.47619579788109
"BAVZKDSUECPF",3,"ratings1","M1","na",5,903,".jpg",9,"M",-0.5,-0.5,4,4,4,4,5,4,4,4,4,4,4,4,4,4,4,4,4,4,4,4,4,4,0.47619579788109
"BAVZKDSUECPF",3,"ratings1","B4","na",5,2498,".jpg",4,"B",0.5,-0.5,4,4,4,4,5,4,4,4,4,4,4,4,4,4,4,4,4,4,4,4,4,4,0.47619579788109
"BBDNTHAOMYQY",1,"ratings1","B2","na",9,30814,".jpg",2,"B",0.5,0.5,4,5,5,6,5,5,7,6,6,7,6,7,7,6,7,2,1,2,1,3,2,3,0.47619579788109
"BBDNTHAOMYQY",1,"ratings1","M2","na",8,3026,".jpg",10,"M",-0.5,0.5,4,5,5,6,5,5,7,6,6,7,6,7,7,6,7,2,1,2,1,3,2,3,0.47619579788109
"BBDNTHAOMYQY",1,"ratings1","M4","na",4,3156,".jpg",12,"M",-0.5,0.5,4,5,5,6,5,5,7,6,6,7,6,7,7,6,7,2,1,2,1,3,2,3,0.47619579788109
"BBDNTHAOMYQY",1,"ratings1","B6","na",8,524,".jpg",6,"B",0.5,0.5,4,5,5,6,5,5,7,6,6,7,6,7,7,6,7,2,1,2,1,3,2,3,0.47619579788109
"BBDNTHAOMYQY",1,"ratings1","M1","na",4,604,".jpg",9,"M",-0.5,0.5,4,5,5,6,5,5,7,6,6,7,6,7,7,6,7,2,1,2,1,3,2,3,0.47619579788109
"BBDNTHAOMYQY",1,"ratings1","B3","na",8,2436,".jpg",3,"B",0.5,0.5,4,5,5,6,5,5,7,6,6,7,6,7,7,6,7,2,1,2,1,3,2,3,0.47619579788109
"BBDNTHAOMYQY",1,"ratings1","B8","na",6,762,".jpg",8,"B",0.5,0.5,4,5,5,6,5,5,7,6,6,7,6,7,7,6,7,2,1,2,1,3,2,3,0.47619579788109
"BBDNTHAOMYQY",1,"ratings1","B5","na",9,6795,".jpg",5,"B",0.5,0.5,4,5,5,6,5,5,7,6,6,7,6,7,7,6,7,2,1,2,1,3,2,3,0.47619579788109
"BBDNTHAOMYQY",1,"ratings1","B4","na",8,1052,".jpg",4,"B",0.5,0.5,4,5,5,6,5,5,7,6,6,7,6,7,7,6,7,2,1,2,1,3,2,3,0.47619579788109
"BBDNTHAOMYQY",1,"ratings1","M6","na",7,2227,".jpg",14,"M",-0.5,0.5,4,5,5,6,5,5,7,6,6,7,6,7,7,6,7,2,1,2,1,3,2,3,0.47619579788109
"BBDNTHAOMYQY",1,"ratings1","M8","na",5,5644,".jpg",16,"M",-0.5,0.5,4,5,5,6,5,5,7,6,6,7,6,7,7,6,7,2,1,2,1,3,2,3,0.47619579788109
"BBDNTHAOMYQY",1,"ratings1","M5","na",4,1420,".jpg",13,"M",-0.5,0.5,4,5,5,6,5,5,7,6,6,7,6,7,7,6,7,2,1,2,1,3,2,3,0.47619579788109
"BBDNTHAOMYQY",1,"ratings1","B1","na",9,2107,".jpg",1,"B",0.5,0.5,4,5,5,6,5,5,7,6,6,7,6,7,7,6,7,2,1,2,1,3,2,3,0.47619579788109
"BBDNTHAOMYQY",1,"ratings1","M3","na",8,428,".jpg",11,"M",-0.5,0.5,4,5,5,6,5,5,7,6,6,7,6,7,7,6,7,2,1,2,1,3,2,3,0.47619579788109
"BBDNTHAOMYQY",1,"ratings1","B7","na",6,1108,".jpg",7,"B",0.5,0.5,4,5,5,6,5,5,7,6,6,7,6,7,7,6,7,2,1,2,1,3,2,3,0.47619579788109
"BBDNTHAOMYQY",1,"ratings1","M7","na",8,2532,".jpg",15,"M",-0.5,0.5,4,5,5,6,5,5,7,6,6,7,6,7,7,6,7,2,1,2,1,3,2,3,0.47619579788109
"BEHAYCERTQIO",1,"ratings1","M4","na",2,3527,".jpg",12,"M",-0.5,0.5,1,5,2,7,2,6,1,6,1,2,1,6,2,6,1,2,2,2,6,2,1,3,-1.19900425400258
"BEHAYCERTQIO",1,"ratings1","M8","na",2,5539,".jpg",16,"M",-0.5,0.5,1,5,2,7,2,6,1,6,1,2,1,6,2,6,1,2,2,2,6,2,1,3,-1.19900425400258
"BEHAYCERTQIO",1,"ratings1","B5","na",6,1823,".jpg",5,"B",0.5,0.5,1,5,2,7,2,6,1,6,1,2,1,6,2,6,1,2,2,2,6,2,1,3,-1.19900425400258
"BEHAYCERTQIO",1,"ratings1","B3","na",6,2496,".jpg",3,"B",0.5,0.5,1,5,2,7,2,6,1,6,1,2,1,6,2,6,1,2,2,2,6,2,1,3,-1.19900425400258
"BEHAYCERTQIO",1,"ratings1","M5","na",3,2862,".jpg",13,"M",-0.5,0.5,1,5,2,7,2,6,1,6,1,2,1,6,2,6,1,2,2,2,6,2,1,3,-1.19900425400258
"BEHAYCERTQIO",1,"ratings1","M1","na",1,1622,".jpg",9,"M",-0.5,0.5,1,5,2,7,2,6,1,6,1,2,1,6,2,6,1,2,2,2,6,2,1,3,-1.19900425400258
"BEHAYCERTQIO",1,"ratings1","B6","na",2,1243,".jpg",6,"B",0.5,0.5,1,5,2,7,2,6,1,6,1,2,1,6,2,6,1,2,2,2,6,2,1,3,-1.19900425400258
"BEHAYCERTQIO",1,"ratings1","M6","na",2,2214,".jpg",14,"M",-0.5,0.5,1,5,2,7,2,6,1,6,1,2,1,6,2,6,1,2,2,2,6,2,1,3,-1.19900425400258
"BEHAYCERTQIO",1,"ratings1","B2","na",6,1375,".jpg",2,"B",0.5,0.5,1,5,2,7,2,6,1,6,1,2,1,6,2,6,1,2,2,2,6,2,1,3,-1.19900425400258
"BEHAYCERTQIO",1,"ratings1","B1","na",5,1180,".jpg",1,"B",0.5,0.5,1,5,2,7,2,6,1,6,1,2,1,6,2,6,1,2,2,2,6,2,1,3,-1.19900425400258
"BEHAYCERTQIO",1,"ratings1","B4","na",5,2258,".jpg",4,"B",0.5,0.5,1,5,2,7,2,6,1,6,1,2,1,6,2,6,1,2,2,2,6,2,1,3,-1.19900425400258
"BEHAYCERTQIO",1,"ratings1","M3","na",3,1965,".jpg",11,"M",-0.5,0.5,1,5,2,7,2,6,1,6,1,2,1,6,2,6,1,2,2,2,6,2,1,3,-1.19900425400258
"BEHAYCERTQIO",1,"ratings1","B8","na",1,1269,".jpg",8,"B",0.5,0.5,1,5,2,7,2,6,1,6,1,2,1,6,2,6,1,2,2,2,6,2,1,3,-1.19900425400258
"BEHAYCERTQIO",1,"ratings1","B7","na",5,1496,".jpg",7,"B",0.5,0.5,1,5,2,7,2,6,1,6,1,2,1,6,2,6,1,2,2,2,6,2,1,3,-1.19900425400258
"BEHAYCERTQIO",1,"ratings1","M2","na",3,1697,".jpg",10,"M",-0.5,0.5,1,5,2,7,2,6,1,6,1,2,1,6,2,6,1,2,2,2,6,2,1,3,-1.19900425400258
"BEHAYCERTQIO",1,"ratings1","M7","na",2,1215,".jpg",15,"M",-0.5,0.5,1,5,2,7,2,6,1,6,1,2,1,6,2,6,1,2,2,2,6,2,1,3,-1.19900425400258
"BGBXXIWLOXKH",2,"ratings1","M6","na",5,2897,".jpg",14,"M",0.5,0.5,1,6,3,7,1,5,1,4,1,4,2,7,1,7,1,1,1,4,4,3,1,2,-1.30370425724531
"BGBXXIWLOXKH",2,"ratings1","B2","na",3,1382,".jpg",2,"B",-0.5,0.5,1,6,3,7,1,5,1,4,1,4,2,7,1,7,1,1,1,4,4,3,1,2,-1.30370425724531
"BGBXXIWLOXKH",2,"ratings1","M5","na",5,2039,".jpg",13,"M",0.5,0.5,1,6,3,7,1,5,1,4,1,4,2,7,1,7,1,1,1,4,4,3,1,2,-1.30370425724531
"BGBXXIWLOXKH",2,"ratings1","B3","na",2,1598,".jpg",3,"B",-0.5,0.5,1,6,3,7,1,5,1,4,1,4,2,7,1,7,1,1,1,4,4,3,1,2,-1.30370425724531
"BGBXXIWLOXKH",2,"ratings1","M8","na",6,1245,".jpg",16,"M",0.5,0.5,1,6,3,7,1,5,1,4,1,4,2,7,1,7,1,1,1,4,4,3,1,2,-1.30370425724531
"BGBXXIWLOXKH",2,"ratings1","M4","na",5,2602,".jpg",12,"M",0.5,0.5,1,6,3,7,1,5,1,4,1,4,2,7,1,7,1,1,1,4,4,3,1,2,-1.30370425724531
"BGBXXIWLOXKH",2,"ratings1","M1","na",5,2521,".jpg",9,"M",0.5,0.5,1,6,3,7,1,5,1,4,1,4,2,7,1,7,1,1,1,4,4,3,1,2,-1.30370425724531
"BGBXXIWLOXKH",2,"ratings1","B6","na",2,1638,".jpg",6,"B",-0.5,0.5,1,6,3,7,1,5,1,4,1,4,2,7,1,7,1,1,1,4,4,3,1,2,-1.30370425724531
"BGBXXIWLOXKH",2,"ratings1","B7","na",1,1314,".jpg",7,"B",-0.5,0.5,1,6,3,7,1,5,1,4,1,4,2,7,1,7,1,1,1,4,4,3,1,2,-1.30370425724531
"BGBXXIWLOXKH",2,"ratings1","B5","na",3,1406,".jpg",5,"B",-0.5,0.5,1,6,3,7,1,5,1,4,1,4,2,7,1,7,1,1,1,4,4,3,1,2,-1.30370425724531
"BGBXXIWLOXKH",2,"ratings1","B1","na",2,1563,".jpg",1,"B",-0.5,0.5,1,6,3,7,1,5,1,4,1,4,2,7,1,7,1,1,1,4,4,3,1,2,-1.30370425724531
"BGBXXIWLOXKH",2,"ratings1","M2","na",5,1325,".jpg",10,"M",0.5,0.5,1,6,3,7,1,5,1,4,1,4,2,7,1,7,1,1,1,4,4,3,1,2,-1.30370425724531
"BGBXXIWLOXKH",2,"ratings1","M7","na",4,1457,".jpg",15,"M",0.5,0.5,1,6,3,7,1,5,1,4,1,4,2,7,1,7,1,1,1,4,4,3,1,2,-1.30370425724531
"BGBXXIWLOXKH",2,"ratings1","B4","na",3,1399,".jpg",4,"B",-0.5,0.5,1,6,3,7,1,5,1,4,1,4,2,7,1,7,1,1,1,4,4,3,1,2,-1.30370425724531
"BGBXXIWLOXKH",2,"ratings1","B8","na",5,2730,".jpg",8,"B",-0.5,0.5,1,6,3,7,1,5,1,4,1,4,2,7,1,7,1,1,1,4,4,3,1,2,-1.30370425724531
"BGBXXIWLOXKH",2,"ratings1","M3","na",6,2987,".jpg",11,"M",0.5,0.5,1,6,3,7,1,5,1,4,1,4,2,7,1,7,1,1,1,4,4,3,1,2,-1.30370425724531
"BJYHGLUNBQJI",4,"ratings1","M2","na",4,4281,".jpg",10,"M",0.5,-0.5,4,3,5,4,5,5,5,4,4,3,5,3,5,4,6,4,5,4,5,3,4,5,0.894995810852008
"BJYHGLUNBQJI",4,"ratings1","M8","na",4,1948,".jpg",16,"M",0.5,-0.5,4,3,5,4,5,5,5,4,4,3,5,3,5,4,6,4,5,4,5,3,4,5,0.894995810852008
"BJYHGLUNBQJI",4,"ratings1","B2","na",6,501,".jpg",2,"B",-0.5,-0.5,4,3,5,4,5,5,5,4,4,3,5,3,5,4,6,4,5,4,5,3,4,5,0.894995810852008
"BJYHGLUNBQJI",4,"ratings1","M4","na",4,529,".jpg",12,"M",0.5,-0.5,4,3,5,4,5,5,5,4,4,3,5,3,5,4,6,4,5,4,5,3,4,5,0.894995810852008
"BJYHGLUNBQJI",4,"ratings1","M5","na",5,109,".jpg",13,"M",0.5,-0.5,4,3,5,4,5,5,5,4,4,3,5,3,5,4,6,4,5,4,5,3,4,5,0.894995810852008
"BJYHGLUNBQJI",4,"ratings1","M1","na",6,198,".jpg",9,"M",0.5,-0.5,4,3,5,4,5,5,5,4,4,3,5,3,5,4,6,4,5,4,5,3,4,5,0.894995810852008
"BJYHGLUNBQJI",4,"ratings1","B3","na",3,140,".jpg",3,"B",-0.5,-0.5,4,3,5,4,5,5,5,4,4,3,5,3,5,4,6,4,5,4,5,3,4,5,0.894995810852008
"BJYHGLUNBQJI",4,"ratings1","M7","na",4,133,".jpg",15,"M",0.5,-0.5,4,3,5,4,5,5,5,4,4,3,5,3,5,4,6,4,5,4,5,3,4,5,0.894995810852008
"BJYHGLUNBQJI",4,"ratings1","B4","na",6,169,".jpg",4,"B",-0.5,-0.5,4,3,5,4,5,5,5,4,4,3,5,3,5,4,6,4,5,4,5,3,4,5,0.894995810852008
"BJYHGLUNBQJI",4,"ratings1","B1","na",6,390,".jpg",1,"B",-0.5,-0.5,4,3,5,4,5,5,5,4,4,3,5,3,5,4,6,4,5,4,5,3,4,5,0.894995810852008
"BJYHGLUNBQJI",4,"ratings1","M3","na",4,160,".jpg",11,"M",0.5,-0.5,4,3,5,4,5,5,5,4,4,3,5,3,5,4,6,4,5,4,5,3,4,5,0.894995810852008
"BJYHGLUNBQJI",4,"ratings1","B6","na",5,135,".jpg",6,"B",-0.5,-0.5,4,3,5,4,5,5,5,4,4,3,5,3,5,4,6,4,5,4,5,3,4,5,0.894995810852008
"BJYHGLUNBQJI",4,"ratings1","B5","na",5,98,".jpg",5,"B",-0.5,-0.5,4,3,5,4,5,5,5,4,4,3,5,3,5,4,6,4,5,4,5,3,4,5,0.894995810852008
"BJYHGLUNBQJI",4,"ratings1","M6","na",3,550,".jpg",14,"M",0.5,-0.5,4,3,5,4,5,5,5,4,4,3,5,3,5,4,6,4,5,4,5,3,4,5,0.894995810852008
"BJYHGLUNBQJI",4,"ratings1","B7","na",7,267,".jpg",7,"B",-0.5,-0.5,4,3,5,4,5,5,5,4,4,3,5,3,5,4,6,4,5,4,5,3,4,5,0.894995810852008
"BJYHGLUNBQJI",4,"ratings1","B8","na",5,312,".jpg",8,"B",-0.5,-0.5,4,3,5,4,5,5,5,4,4,3,5,3,5,4,6,4,5,4,5,3,4,5,0.894995810852008
"BQJRWLJJQOHK",2,"ratings1","B6","na",5,1887,".jpg",6,"B",-0.5,0.5,5,3,4,5,4,5,6,3,4,4,4,3,4,5,5,3,5,5,4,3,3,5,0.633245802745184
"BQJRWLJJQOHK",2,"ratings1","M2","na",4,582,".jpg",10,"M",0.5,0.5,5,3,4,5,4,5,6,3,4,4,4,3,4,5,5,3,5,5,4,3,3,5,0.633245802745184
"BQJRWLJJQOHK",2,"ratings1","M4","na",6,489,".jpg",12,"M",0.5,0.5,5,3,4,5,4,5,6,3,4,4,4,3,4,5,5,3,5,5,4,3,3,5,0.633245802745184
"BQJRWLJJQOHK",2,"ratings1","B4","na",3,345,".jpg",4,"B",-0.5,0.5,5,3,4,5,4,5,6,3,4,4,4,3,4,5,5,3,5,5,4,3,3,5,0.633245802745184
"BQJRWLJJQOHK",2,"ratings1","B2","na",7,405,".jpg",2,"B",-0.5,0.5,5,3,4,5,4,5,6,3,4,4,4,3,4,5,5,3,5,5,4,3,3,5,0.633245802745184
"BQJRWLJJQOHK",2,"ratings1","M1","na",4,510,".jpg",9,"M",0.5,0.5,5,3,4,5,4,5,6,3,4,4,4,3,4,5,5,3,5,5,4,3,3,5,0.633245802745184
"BQJRWLJJQOHK",2,"ratings1","M5","na",5,384,".jpg",13,"M",0.5,0.5,5,3,4,5,4,5,6,3,4,4,4,3,4,5,5,3,5,5,4,3,3,5,0.633245802745184
"BQJRWLJJQOHK",2,"ratings1","M3","na",8,495,".jpg",11,"M",0.5,0.5,5,3,4,5,4,5,6,3,4,4,4,3,4,5,5,3,5,5,4,3,3,5,0.633245802745184
"BQJRWLJJQOHK",2,"ratings1","B5","na",2,327,".jpg",5,"B",-0.5,0.5,5,3,4,5,4,5,6,3,4,4,4,3,4,5,5,3,5,5,4,3,3,5,0.633245802745184
"BQJRWLJJQOHK",2,"ratings1","M6","na",5,355,".jpg",14,"M",0.5,0.5,5,3,4,5,4,5,6,3,4,4,4,3,4,5,5,3,5,5,4,3,3,5,0.633245802745184
"BQJRWLJJQOHK",2,"ratings1","B8","na",7,340,".jpg",8,"B",-0.5,0.5,5,3,4,5,4,5,6,3,4,4,4,3,4,5,5,3,5,5,4,3,3,5,0.633245802745184
"BQJRWLJJQOHK",2,"ratings1","B7","na",2,378,".jpg",7,"B",-0.5,0.5,5,3,4,5,4,5,6,3,4,4,4,3,4,5,5,3,5,5,4,3,3,5,0.633245802745184
"BQJRWLJJQOHK",2,"ratings1","B3","na",3,276,".jpg",3,"B",-0.5,0.5,5,3,4,5,4,5,6,3,4,4,4,3,4,5,5,3,5,5,4,3,3,5,0.633245802745184
"BQJRWLJJQOHK",2,"ratings1","M7","na",5,284,".jpg",15,"M",0.5,0.5,5,3,4,5,4,5,6,3,4,4,4,3,4,5,5,3,5,5,4,3,3,5,0.633245802745184
"BQJRWLJJQOHK",2,"ratings1","M8","na",6,354,".jpg",16,"M",0.5,0.5,5,3,4,5,4,5,6,3,4,4,4,3,4,5,5,3,5,5,4,3,3,5,0.633245802745184
"BQJRWLJJQOHK",2,"ratings1","B1","na",2,444,".jpg",1,"B",-0.5,0.5,5,3,4,5,4,5,6,3,4,4,4,3,4,5,5,3,5,5,4,3,3,5,0.633245802745184
"BZHOQUTCTOHR",6,"ratings1","B1","na",1,4106,".jpg",1,"B",-0.5,0.5,7,6,3,6,7,6,4,7,7,6,7,1,7,7,5,1,7,1,2,2,2,2,0.633245802745184
"BZHOQUTCTOHR",6,"ratings1","B6","na",6,3528,".jpg",6,"B",-0.5,0.5,7,6,3,6,7,6,4,7,7,6,7,1,7,7,5,1,7,1,2,2,2,2,0.633245802745184
"BZHOQUTCTOHR",6,"ratings1","B8","na",9,2042,".jpg",8,"B",-0.5,0.5,7,6,3,6,7,6,4,7,7,6,7,1,7,7,5,1,7,1,2,2,2,2,0.633245802745184
"BZHOQUTCTOHR",6,"ratings1","M1","na",9,2134,".jpg",9,"M",0.5,0.5,7,6,3,6,7,6,4,7,7,6,7,1,7,7,5,1,7,1,2,2,2,2,0.633245802745184
"BZHOQUTCTOHR",6,"ratings1","B5","na",3,2904,".jpg",5,"B",-0.5,0.5,7,6,3,6,7,6,4,7,7,6,7,1,7,7,5,1,7,1,2,2,2,2,0.633245802745184
"BZHOQUTCTOHR",6,"ratings1","M6","na",6,1538,".jpg",14,"M",0.5,0.5,7,6,3,6,7,6,4,7,7,6,7,1,7,7,5,1,7,1,2,2,2,2,0.633245802745184
"BZHOQUTCTOHR",6,"ratings1","M7","na",7,1428,".jpg",15,"M",0.5,0.5,7,6,3,6,7,6,4,7,7,6,7,1,7,7,5,1,7,1,2,2,2,2,0.633245802745184
"BZHOQUTCTOHR",6,"ratings1","M2","na",9,2322,".jpg",10,"M",0.5,0.5,7,6,3,6,7,6,4,7,7,6,7,1,7,7,5,1,7,1,2,2,2,2,0.633245802745184
"BZHOQUTCTOHR",6,"ratings1","M4","na",9,1272,".jpg",12,"M",0.5,0.5,7,6,3,6,7,6,4,7,7,6,7,1,7,7,5,1,7,1,2,2,2,2,0.633245802745184
"BZHOQUTCTOHR",6,"ratings1","B4","na",2,1732,".jpg",4,"B",-0.5,0.5,7,6,3,6,7,6,4,7,7,6,7,1,7,7,5,1,7,1,2,2,2,2,0.633245802745184
"BZHOQUTCTOHR",6,"ratings1","B7","na",1,914,".jpg",7,"B",-0.5,0.5,7,6,3,6,7,6,4,7,7,6,7,1,7,7,5,1,7,1,2,2,2,2,0.633245802745184
"BZHOQUTCTOHR",6,"ratings1","M3","na",9,1438,".jpg",11,"M",0.5,0.5,7,6,3,6,7,6,4,7,7,6,7,1,7,7,5,1,7,1,2,2,2,2,0.633245802745184
"BZHOQUTCTOHR",6,"ratings1","M8","na",9,1510,".jpg",16,"M",0.5,0.5,7,6,3,6,7,6,4,7,7,6,7,1,7,7,5,1,7,1,2,2,2,2,0.633245802745184
"BZHOQUTCTOHR",6,"ratings1","B3","na",2,1562,".jpg",3,"B",-0.5,0.5,7,6,3,6,7,6,4,7,7,6,7,1,7,7,5,1,7,1,2,2,2,2,0.633245802745184
"BZHOQUTCTOHR",6,"ratings1","M5","na",7,1934,".jpg",13,"M",0.5,0.5,7,6,3,6,7,6,4,7,7,6,7,1,7,7,5,1,7,1,2,2,2,2,0.633245802745184
"BZHOQUTCTOHR",6,"ratings1","B2","na",2,1584,".jpg",2,"B",-0.5,0.5,7,6,3,6,7,6,4,7,7,6,7,1,7,7,5,1,7,1,2,2,2,2,0.633245802745184
"BZHSTLOWEFXL",7,"ratings1","B6","na",9,8201,".jpg",6,"B",0.5,-0.5,7,7,7,6,5,6,5,5,7,5,5,6,6,5,7,3,2,3,3,2,2,1,0.685595804366549
"BZHSTLOWEFXL",7,"ratings1","B2","na",9,2586,".jpg",2,"B",0.5,-0.5,7,7,7,6,5,6,5,5,7,5,5,6,6,5,7,3,2,3,3,2,2,1,0.685595804366549
"BZHSTLOWEFXL",7,"ratings1","M4","na",2,1560,".jpg",12,"M",-0.5,-0.5,7,7,7,6,5,6,5,5,7,5,5,6,6,5,7,3,2,3,3,2,2,1,0.685595804366549
"BZHSTLOWEFXL",7,"ratings1","M3","na",2,1617,".jpg",11,"M",-0.5,-0.5,7,7,7,6,5,6,5,5,7,5,5,6,6,5,7,3,2,3,3,2,2,1,0.685595804366549
"BZHSTLOWEFXL",7,"ratings1","M8","na",2,1170,".jpg",16,"M",-0.5,-0.5,7,7,7,6,5,6,5,5,7,5,5,6,6,5,7,3,2,3,3,2,2,1,0.685595804366549
"BZHSTLOWEFXL",7,"ratings1","B1","na",9,1434,".jpg",1,"B",0.5,-0.5,7,7,7,6,5,6,5,5,7,5,5,6,6,5,7,3,2,3,3,2,2,1,0.685595804366549
"BZHSTLOWEFXL",7,"ratings1","M6","na",2,1194,".jpg",14,"M",-0.5,-0.5,7,7,7,6,5,6,5,5,7,5,5,6,6,5,7,3,2,3,3,2,2,1,0.685595804366549
"BZHSTLOWEFXL",7,"ratings1","M5","na",2,1274,".jpg",13,"M",-0.5,-0.5,7,7,7,6,5,6,5,5,7,5,5,6,6,5,7,3,2,3,3,2,2,1,0.685595804366549
"BZHSTLOWEFXL",7,"ratings1","B7","na",8,1145,".jpg",7,"B",0.5,-0.5,7,7,7,6,5,6,5,5,7,5,5,6,6,5,7,3,2,3,3,2,2,1,0.685595804366549
"BZHSTLOWEFXL",7,"ratings1","B3","na",8,1162,".jpg",3,"B",0.5,-0.5,7,7,7,6,5,6,5,5,7,5,5,6,6,5,7,3,2,3,3,2,2,1,0.685595804366549
"BZHSTLOWEFXL",7,"ratings1","B8","na",9,793,".jpg",8,"B",0.5,-0.5,7,7,7,6,5,6,5,5,7,5,5,6,6,5,7,3,2,3,3,2,2,1,0.685595804366549
"BZHSTLOWEFXL",7,"ratings1","B4","na",9,537,".jpg",4,"B",0.5,-0.5,7,7,7,6,5,6,5,5,7,5,5,6,6,5,7,3,2,3,3,2,2,1,0.685595804366549
"BZHSTLOWEFXL",7,"ratings1","M7","na",2,1289,".jpg",15,"M",-0.5,-0.5,7,7,7,6,5,6,5,5,7,5,5,6,6,5,7,3,2,3,3,2,2,1,0.685595804366549
"BZHSTLOWEFXL",7,"ratings1","M1","na",2,977,".jpg",9,"M",-0.5,-0.5,7,7,7,6,5,6,5,5,7,5,5,6,6,5,7,3,2,3,3,2,2,1,0.685595804366549
"BZHSTLOWEFXL",7,"ratings1","B5","na",9,1187,".jpg",5,"B",0.5,-0.5,7,7,7,6,5,6,5,5,7,5,5,6,6,5,7,3,2,3,3,2,2,1,0.685595804366549
"BZHSTLOWEFXL",7,"ratings1","M2","na",2,1217,".jpg",10,"M",-0.5,-0.5,7,7,7,6,5,6,5,5,7,5,5,6,6,5,7,3,2,3,3,2,2,1,0.685595804366549
"CAFABEAUTKRZ",6,"ratings1","B8","na",7,2728,".jpg",8,"B",-0.5,0.5,7,6,7,2,7,2,4,6,2,6,6,4,5,7,6,1,4,2,2,6,6,2,0.790295807609279
"CAFABEAUTKRZ",6,"ratings1","B7","na",8,434,".jpg",7,"B",-0.5,0.5,7,6,7,2,7,2,4,6,2,6,6,4,5,7,6,1,4,2,2,6,6,2,0.790295807609279
"CAFABEAUTKRZ",6,"ratings1","M2","na",4,686,".jpg",10,"M",0.5,0.5,7,6,7,2,7,2,4,6,2,6,6,4,5,7,6,1,4,2,2,6,6,2,0.790295807609279
"CAFABEAUTKRZ",6,"ratings1","B6","na",2,278,".jpg",6,"B",-0.5,0.5,7,6,7,2,7,2,4,6,2,6,6,4,5,7,6,1,4,2,2,6,6,2,0.790295807609279
"CAFABEAUTKRZ",6,"ratings1","B4","na",6,238,".jpg",4,"B",-0.5,0.5,7,6,7,2,7,2,4,6,2,6,6,4,5,7,6,1,4,2,2,6,6,2,0.790295807609279
"CAFABEAUTKRZ",6,"ratings1","M5","na",4,354,".jpg",13,"M",0.5,0.5,7,6,7,2,7,2,4,6,2,6,6,4,5,7,6,1,4,2,2,6,6,2,0.790295807609279
"CAFABEAUTKRZ",6,"ratings1","M6","na",5,274,".jpg",14,"M",0.5,0.5,7,6,7,2,7,2,4,6,2,6,6,4,5,7,6,1,4,2,2,6,6,2,0.790295807609279
"CAFABEAUTKRZ",6,"ratings1","B1","na",4,237,".jpg",1,"B",-0.5,0.5,7,6,7,2,7,2,4,6,2,6,6,4,5,7,6,1,4,2,2,6,6,2,0.790295807609279
"CAFABEAUTKRZ",6,"ratings1","B5","na",5,174,".jpg",5,"B",-0.5,0.5,7,6,7,2,7,2,4,6,2,6,6,4,5,7,6,1,4,2,2,6,6,2,0.790295807609279
"CAFABEAUTKRZ",6,"ratings1","M1","na",6,271,".jpg",9,"M",0.5,0.5,7,6,7,2,7,2,4,6,2,6,6,4,5,7,6,1,4,2,2,6,6,2,0.790295807609279
"CAFABEAUTKRZ",6,"ratings1","M4","na",6,149,".jpg",12,"M",0.5,0.5,7,6,7,2,7,2,4,6,2,6,6,4,5,7,6,1,4,2,2,6,6,2,0.790295807609279
"CAFABEAUTKRZ",6,"ratings1","B3","na",7,189,".jpg",3,"B",-0.5,0.5,7,6,7,2,7,2,4,6,2,6,6,4,5,7,6,1,4,2,2,6,6,2,0.790295807609279
"CAFABEAUTKRZ",6,"ratings1","M3","na",5,421,".jpg",11,"M",0.5,0.5,7,6,7,2,7,2,4,6,2,6,6,4,5,7,6,1,4,2,2,6,6,2,0.790295807609279
"CAFABEAUTKRZ",6,"ratings1","M7","na",2,286,".jpg",15,"M",0.5,0.5,7,6,7,2,7,2,4,6,2,6,6,4,5,7,6,1,4,2,2,6,6,2,0.790295807609279
"CAFABEAUTKRZ",6,"ratings1","M8","na",1,304,".jpg",16,"M",0.5,0.5,7,6,7,2,7,2,4,6,2,6,6,4,5,7,6,1,4,2,2,6,6,2,0.790295807609279
"CAFABEAUTKRZ",6,"ratings1","B2","na",5,254,".jpg",2,"B",-0.5,0.5,7,6,7,2,7,2,4,6,2,6,6,4,5,7,6,1,4,2,2,6,6,2,0.790295807609279
"CEBPBQKWKKLW",6,"ratings1","M7","na",4,6103,".jpg",15,"M",0.5,0.5,5,5,5,4,2,7,6,2,4,7,6,4,4,3,6,5,4,6,1,1,4,3,0.528545799502455
"CEBPBQKWKKLW",6,"ratings1","M4","na",4,4766,".jpg",12,"M",0.5,0.5,5,5,5,4,2,7,6,2,4,7,6,4,4,3,6,5,4,6,1,1,4,3,0.528545799502455
"CEBPBQKWKKLW",6,"ratings1","M1","na",9,17180,".jpg",9,"M",0.5,0.5,5,5,5,4,2,7,6,2,4,7,6,4,4,3,6,5,4,6,1,1,4,3,0.528545799502455
"CEBPBQKWKKLW",6,"ratings1","B8","na",1,2594,".jpg",8,"B",-0.5,0.5,5,5,5,4,2,7,6,2,4,7,6,4,4,3,6,5,4,6,1,1,4,3,0.528545799502455
"CEBPBQKWKKLW",6,"ratings1","M5","na",9,2594,".jpg",13,"M",0.5,0.5,5,5,5,4,2,7,6,2,4,7,6,4,4,3,6,5,4,6,1,1,4,3,0.528545799502455
"CEBPBQKWKKLW",6,"ratings1","B5","na",2,2863,".jpg",5,"B",-0.5,0.5,5,5,5,4,2,7,6,2,4,7,6,4,4,3,6,5,4,6,1,1,4,3,0.528545799502455
"CEBPBQKWKKLW",6,"ratings1","M3","na",8,1923,".jpg",11,"M",0.5,0.5,5,5,5,4,2,7,6,2,4,7,6,4,4,3,6,5,4,6,1,1,4,3,0.528545799502455
"CEBPBQKWKKLW",6,"ratings1","B2","na",1,2171,".jpg",2,"B",-0.5,0.5,5,5,5,4,2,7,6,2,4,7,6,4,4,3,6,5,4,6,1,1,4,3,0.528545799502455
"CEBPBQKWKKLW",6,"ratings1","B4","na",1,841,".jpg",4,"B",-0.5,0.5,5,5,5,4,2,7,6,2,4,7,6,4,4,3,6,5,4,6,1,1,4,3,0.528545799502455
"CEBPBQKWKKLW",6,"ratings1","M6","na",8,971,".jpg",14,"M",0.5,0.5,5,5,5,4,2,7,6,2,4,7,6,4,4,3,6,5,4,6,1,1,4,3,0.528545799502455
"CEBPBQKWKKLW",6,"ratings1","M8","na",8,1764,".jpg",16,"M",0.5,0.5,5,5,5,4,2,7,6,2,4,7,6,4,4,3,6,5,4,6,1,1,4,3,0.528545799502455
"CEBPBQKWKKLW",6,"ratings1","M2","na",8,1074,".jpg",10,"M",0.5,0.5,5,5,5,4,2,7,6,2,4,7,6,4,4,3,6,5,4,6,1,1,4,3,0.528545799502455
"CEBPBQKWKKLW",6,"ratings1","B3","na",1,1285,".jpg",3,"B",-0.5,0.5,5,5,5,4,2,7,6,2,4,7,6,4,4,3,6,5,4,6,1,1,4,3,0.528545799502455
"CEBPBQKWKKLW",6,"ratings1","B6","na",1,1987,".jpg",6,"B",-0.5,0.5,5,5,5,4,2,7,6,2,4,7,6,4,4,3,6,5,4,6,1,1,4,3,0.528545799502455
"CEBPBQKWKKLW",6,"ratings1","B1","na",1,894,".jpg",1,"B",-0.5,0.5,5,5,5,4,2,7,6,2,4,7,6,4,4,3,6,5,4,6,1,1,4,3,0.528545799502455
"CEBPBQKWKKLW",6,"ratings1","B7","na",1,1219,".jpg",7,"B",-0.5,0.5,5,5,5,4,2,7,6,2,4,7,6,4,4,3,6,5,4,6,1,1,4,3,0.528545799502455
"CEFFIJDEMOEZ",2,"ratings1","B1","na",8,8183,".jpg",1,"B",-0.5,0.5,6,1,7,1,4,7,7,4,7,6,5,2,7,4,7,4,6,4,2,1,7,7,1.52319583030839
"CEFFIJDEMOEZ",2,"ratings1","B2","na",8,2648,".jpg",2,"B",-0.5,0.5,6,1,7,1,4,7,7,4,7,6,5,2,7,4,7,4,6,4,2,1,7,7,1.52319583030839
"CEFFIJDEMOEZ",2,"ratings1","M4","na",9,5242,".jpg",12,"M",0.5,0.5,6,1,7,1,4,7,7,4,7,6,5,2,7,4,7,4,6,4,2,1,7,7,1.52319583030839
"CEFFIJDEMOEZ",2,"ratings1","M3","na",5,2911,".jpg",11,"M",0.5,0.5,6,1,7,1,4,7,7,4,7,6,5,2,7,4,7,4,6,4,2,1,7,7,1.52319583030839
"CEFFIJDEMOEZ",2,"ratings1","M6","na",5,1424,".jpg",14,"M",0.5,0.5,6,1,7,1,4,7,7,4,7,6,5,2,7,4,7,4,6,4,2,1,7,7,1.52319583030839
"CEFFIJDEMOEZ",2,"ratings1","B7","na",1,1456,".jpg",7,"B",-0.5,0.5,6,1,7,1,4,7,7,4,7,6,5,2,7,4,7,4,6,4,2,1,7,7,1.52319583030839
"CEFFIJDEMOEZ",2,"ratings1","B6","na",5,1603,".jpg",6,"B",-0.5,0.5,6,1,7,1,4,7,7,4,7,6,5,2,7,4,7,4,6,4,2,1,7,7,1.52319583030839
"CEFFIJDEMOEZ",2,"ratings1","B4","na",5,971,".jpg",4,"B",-0.5,0.5,6,1,7,1,4,7,7,4,7,6,5,2,7,4,7,4,6,4,2,1,7,7,1.52319583030839
"CEFFIJDEMOEZ",2,"ratings1","M2","na",8,1661,".jpg",10,"M",0.5,0.5,6,1,7,1,4,7,7,4,7,6,5,2,7,4,7,4,6,4,2,1,7,7,1.52319583030839
"CEFFIJDEMOEZ",2,"ratings1","M1","na",8,1869,".jpg",9,"M",0.5,0.5,6,1,7,1,4,7,7,4,7,6,5,2,7,4,7,4,6,4,2,1,7,7,1.52319583030839
"CEFFIJDEMOEZ",2,"ratings1","M8","na",8,1311,".jpg",16,"M",0.5,0.5,6,1,7,1,4,7,7,4,7,6,5,2,7,4,7,4,6,4,2,1,7,7,1.52319583030839
"CEFFIJDEMOEZ",2,"ratings1","M5","na",8,685,".jpg",13,"M",0.5,0.5,6,1,7,1,4,7,7,4,7,6,5,2,7,4,7,4,6,4,2,1,7,7,1.52319583030839
"CEFFIJDEMOEZ",2,"ratings1","M7","na",7,1435,".jpg",15,"M",0.5,0.5,6,1,7,1,4,7,7,4,7,6,5,2,7,4,7,4,6,4,2,1,7,7,1.52319583030839
"CEFFIJDEMOEZ",2,"ratings1","B5","na",4,1829,".jpg",5,"B",-0.5,0.5,6,1,7,1,4,7,7,4,7,6,5,2,7,4,7,4,6,4,2,1,7,7,1.52319583030839
"CEFFIJDEMOEZ",2,"ratings1","B3","na",4,709,".jpg",3,"B",-0.5,0.5,6,1,7,1,4,7,7,4,7,6,5,2,7,4,7,4,6,4,2,1,7,7,1.52319583030839
"CEFFIJDEMOEZ",2,"ratings1","B8","na",4,851,".jpg",8,"B",-0.5,0.5,6,1,7,1,4,7,7,4,7,6,5,2,7,4,7,4,6,4,2,1,7,7,1.52319583030839
"CFHOXKVABMWT",7,"ratings1","M3","na",4,4873,".jpg",11,"M",-0.5,-0.5,2,7,4,7,1,7,1,4,3,7,2,6,3,7,5,1,2,4,1,1,1,1,-1.04195424913849
"CFHOXKVABMWT",7,"ratings1","B1","na",2,1853,".jpg",1,"B",0.5,-0.5,2,7,4,7,1,7,1,4,3,7,2,6,3,7,5,1,2,4,1,1,1,1,-1.04195424913849
"CFHOXKVABMWT",7,"ratings1","M2","na",6,1327,".jpg",10,"M",-0.5,-0.5,2,7,4,7,1,7,1,4,3,7,2,6,3,7,5,1,2,4,1,1,1,1,-1.04195424913849
"CFHOXKVABMWT",7,"ratings1","B8","na",4,1611,".jpg",8,"B",0.5,-0.5,2,7,4,7,1,7,1,4,3,7,2,6,3,7,5,1,2,4,1,1,1,1,-1.04195424913849
"CFHOXKVABMWT",7,"ratings1","B3","na",4,2893,".jpg",3,"B",0.5,-0.5,2,7,4,7,1,7,1,4,3,7,2,6,3,7,5,1,2,4,1,1,1,1,-1.04195424913849
"CFHOXKVABMWT",7,"ratings1","M8","na",6,2093,".jpg",16,"M",-0.5,-0.5,2,7,4,7,1,7,1,4,3,7,2,6,3,7,5,1,2,4,1,1,1,1,-1.04195424913849
"CFHOXKVABMWT",7,"ratings1","M6","na",6,1165,".jpg",14,"M",-0.5,-0.5,2,7,4,7,1,7,1,4,3,7,2,6,3,7,5,1,2,4,1,1,1,1,-1.04195424913849
"CFHOXKVABMWT",7,"ratings1","B7","na",3,2191,".jpg",7,"B",0.5,-0.5,2,7,4,7,1,7,1,4,3,7,2,6,3,7,5,1,2,4,1,1,1,1,-1.04195424913849
"CFHOXKVABMWT",7,"ratings1","M5","na",7,1259,".jpg",13,"M",-0.5,-0.5,2,7,4,7,1,7,1,4,3,7,2,6,3,7,5,1,2,4,1,1,1,1,-1.04195424913849
"CFHOXKVABMWT",7,"ratings1","M1","na",6,10399,".jpg",9,"M",-0.5,-0.5,2,7,4,7,1,7,1,4,3,7,2,6,3,7,5,1,2,4,1,1,1,1,-1.04195424913849
"CFHOXKVABMWT",7,"ratings1","B5","na",4,1723,".jpg",5,"B",0.5,-0.5,2,7,4,7,1,7,1,4,3,7,2,6,3,7,5,1,2,4,1,1,1,1,-1.04195424913849
"CFHOXKVABMWT",7,"ratings1","B6","na",3,989,".jpg",6,"B",0.5,-0.5,2,7,4,7,1,7,1,4,3,7,2,6,3,7,5,1,2,4,1,1,1,1,-1.04195424913849
"CFHOXKVABMWT",7,"ratings1","M7","na",6,1437,".jpg",15,"M",-0.5,-0.5,2,7,4,7,1,7,1,4,3,7,2,6,3,7,5,1,2,4,1,1,1,1,-1.04195424913849
"CFHOXKVABMWT",7,"ratings1","M4","na",7,1629,".jpg",12,"M",-0.5,-0.5,2,7,4,7,1,7,1,4,3,7,2,6,3,7,5,1,2,4,1,1,1,1,-1.04195424913849
"CFHOXKVABMWT",7,"ratings1","B4","na",2,1663,".jpg",4,"B",0.5,-0.5,2,7,4,7,1,7,1,4,3,7,2,6,3,7,5,1,2,4,1,1,1,1,-1.04195424913849
"CFHOXKVABMWT",7,"ratings1","B2","na",2,700,".jpg",2,"B",0.5,-0.5,2,7,4,7,1,7,1,4,3,7,2,6,3,7,5,1,2,4,1,1,1,1,-1.04195424913849
"CFICILDJOGOZ",5,"ratings1","M1","na",1,2034,".jpg",9,"M",-0.5,0.5,1,7,1,7,1,7,1,7,1,7,1,7,1,7,1,1,1,1,1,1,1,1,-1.93190427670169
"CFICILDJOGOZ",5,"ratings1","M4","na",3,1522,".jpg",12,"M",-0.5,0.5,1,7,1,7,1,7,1,7,1,7,1,7,1,7,1,1,1,1,1,1,1,1,-1.93190427670169
"CFICILDJOGOZ",5,"ratings1","M3","na",1,1132,".jpg",11,"M",-0.5,0.5,1,7,1,7,1,7,1,7,1,7,1,7,1,7,1,1,1,1,1,1,1,1,-1.93190427670169
"CFICILDJOGOZ",5,"ratings1","M2","na",2,834,".jpg",10,"M",-0.5,0.5,1,7,1,7,1,7,1,7,1,7,1,7,1,7,1,1,1,1,1,1,1,1,-1.93190427670169
"CFICILDJOGOZ",5,"ratings1","B2","na",4,1107,".jpg",2,"B",0.5,0.5,1,7,1,7,1,7,1,7,1,7,1,7,1,7,1,1,1,1,1,1,1,1,-1.93190427670169
"CFICILDJOGOZ",5,"ratings1","M7","na",2,1620,".jpg",15,"M",-0.5,0.5,1,7,1,7,1,7,1,7,1,7,1,7,1,7,1,1,1,1,1,1,1,1,-1.93190427670169
"CFICILDJOGOZ",5,"ratings1","B5","na",9,1308,".jpg",5,"B",0.5,0.5,1,7,1,7,1,7,1,7,1,7,1,7,1,7,1,1,1,1,1,1,1,1,-1.93190427670169
"CFICILDJOGOZ",5,"ratings1","M8","na",1,1005,".jpg",16,"M",-0.5,0.5,1,7,1,7,1,7,1,7,1,7,1,7,1,7,1,1,1,1,1,1,1,1,-1.93190427670169
"CFICILDJOGOZ",5,"ratings1","B6","na",2,1379,".jpg",6,"B",0.5,0.5,1,7,1,7,1,7,1,7,1,7,1,7,1,7,1,1,1,1,1,1,1,1,-1.93190427670169
"CFICILDJOGOZ",5,"ratings1","B8","na",2,1099,".jpg",8,"B",0.5,0.5,1,7,1,7,1,7,1,7,1,7,1,7,1,7,1,1,1,1,1,1,1,1,-1.93190427670169
"CFICILDJOGOZ",5,"ratings1","M5","na",4,1034,".jpg",13,"M",-0.5,0.5,1,7,1,7,1,7,1,7,1,7,1,7,1,7,1,1,1,1,1,1,1,1,-1.93190427670169
"CFICILDJOGOZ",5,"ratings1","M6","na",4,805,".jpg",14,"M",-0.5,0.5,1,7,1,7,1,7,1,7,1,7,1,7,1,7,1,1,1,1,1,1,1,1,-1.93190427670169
"CFICILDJOGOZ",5,"ratings1","B4","na",6,1170,".jpg",4,"B",0.5,0.5,1,7,1,7,1,7,1,7,1,7,1,7,1,7,1,1,1,1,1,1,1,1,-1.93190427670169
"CFICILDJOGOZ",5,"ratings1","B7","na",7,1241,".jpg",7,"B",0.5,0.5,1,7,1,7,1,7,1,7,1,7,1,7,1,7,1,1,1,1,1,1,1,1,-1.93190427670169
"CFICILDJOGOZ",5,"ratings1","B3","na",6,1312,".jpg",3,"B",0.5,0.5,1,7,1,7,1,7,1,7,1,7,1,7,1,7,1,1,1,1,1,1,1,1,-1.93190427670169
"CFICILDJOGOZ",5,"ratings1","B1","na",4,1410,".jpg",1,"B",0.5,0.5,1,7,1,7,1,7,1,7,1,7,1,7,1,7,1,1,1,1,1,1,1,1,-1.93190427670169
"CGZGUFYDNBVP",4,"ratings1","B7","na",3,5560,".jpg",7,"B",-0.5,-0.5,6,5,5,6,6,5,6,6,5,7,6,7,7,7,7,1,1,2,1,3,2,3,0.47619579788109
"CGZGUFYDNBVP",4,"ratings1","M2","na",7,2148,".jpg",10,"M",0.5,-0.5,6,5,5,6,6,5,6,6,5,7,6,7,7,7,7,1,1,2,1,3,2,3,0.47619579788109
"CGZGUFYDNBVP",4,"ratings1","B1","na",4,3409,".jpg",1,"B",-0.5,-0.5,6,5,5,6,6,5,6,6,5,7,6,7,7,7,7,1,1,2,1,3,2,3,0.47619579788109
"CGZGUFYDNBVP",4,"ratings1","B8","na",3,1267,".jpg",8,"B",-0.5,-0.5,6,5,5,6,6,5,6,6,5,7,6,7,7,7,7,1,1,2,1,3,2,3,0.47619579788109
"CGZGUFYDNBVP",4,"ratings1","M8","na",7,1133,".jpg",16,"M",0.5,-0.5,6,5,5,6,6,5,6,6,5,7,6,7,7,7,7,1,1,2,1,3,2,3,0.47619579788109
"CGZGUFYDNBVP",4,"ratings1","B4","na",3,686,".jpg",4,"B",-0.5,-0.5,6,5,5,6,6,5,6,6,5,7,6,7,7,7,7,1,1,2,1,3,2,3,0.47619579788109
"CGZGUFYDNBVP",4,"ratings1","B6","na",4,774,".jpg",6,"B",-0.5,-0.5,6,5,5,6,6,5,6,6,5,7,6,7,7,7,7,1,1,2,1,3,2,3,0.47619579788109
"CGZGUFYDNBVP",4,"ratings1","B2","na",4,591,".jpg",2,"B",-0.5,-0.5,6,5,5,6,6,5,6,6,5,7,6,7,7,7,7,1,1,2,1,3,2,3,0.47619579788109
"CGZGUFYDNBVP",4,"ratings1","M1","na",8,1558,".jpg",9,"M",0.5,-0.5,6,5,5,6,6,5,6,6,5,7,6,7,7,7,7,1,1,2,1,3,2,3,0.47619579788109
"CGZGUFYDNBVP",4,"ratings1","M5","na",8,616,".jpg",13,"M",0.5,-0.5,6,5,5,6,6,5,6,6,5,7,6,7,7,7,7,1,1,2,1,3,2,3,0.47619579788109
"CGZGUFYDNBVP",4,"ratings1","B3","na",4,939,".jpg",3,"B",-0.5,-0.5,6,5,5,6,6,5,6,6,5,7,6,7,7,7,7,1,1,2,1,3,2,3,0.47619579788109
"CGZGUFYDNBVP",4,"ratings1","M7","na",7,701,".jpg",15,"M",0.5,-0.5,6,5,5,6,6,5,6,6,5,7,6,7,7,7,7,1,1,2,1,3,2,3,0.47619579788109
"CGZGUFYDNBVP",4,"ratings1","B5","na",4,925,".jpg",5,"B",-0.5,-0.5,6,5,5,6,6,5,6,6,5,7,6,7,7,7,7,1,1,2,1,3,2,3,0.47619579788109
"CGZGUFYDNBVP",4,"ratings1","M3","na",7,2126,".jpg",11,"M",0.5,-0.5,6,5,5,6,6,5,6,6,5,7,6,7,7,7,7,1,1,2,1,3,2,3,0.47619579788109
"CGZGUFYDNBVP",4,"ratings1","M4","na",7,838,".jpg",12,"M",0.5,-0.5,6,5,5,6,6,5,6,6,5,7,6,7,7,7,7,1,1,2,1,3,2,3,0.47619579788109
"CGZGUFYDNBVP",4,"ratings1","M6","na",8,462,".jpg",14,"M",0.5,-0.5,6,5,5,6,6,5,6,6,5,7,6,7,7,7,7,1,1,2,1,3,2,3,0.47619579788109
"CHXWQIBDVIVF",7,"ratings1","B3","na",5,3189,".jpg",3,"B",0.5,-0.5,5,7,5,5,1,6,1,1,4,2,2,6,1,3,5,5,2,7,6,2,3,1,-0.0996542199539233
"CHXWQIBDVIVF",7,"ratings1","B7","na",2,4515,".jpg",7,"B",0.5,-0.5,5,7,5,5,1,6,1,1,4,2,2,6,1,3,5,5,2,7,6,2,3,1,-0.0996542199539233
"CHXWQIBDVIVF",7,"ratings1","B6","na",2,953,".jpg",6,"B",0.5,-0.5,5,7,5,5,1,6,1,1,4,2,2,6,1,3,5,5,2,7,6,2,3,1,-0.0996542199539233
"CHXWQIBDVIVF",7,"ratings1","M2","na",2,1394,".jpg",10,"M",-0.5,-0.5,5,7,5,5,1,6,1,1,4,2,2,6,1,3,5,5,2,7,6,2,3,1,-0.0996542199539233
"CHXWQIBDVIVF",7,"ratings1","B2","na",8,1893,".jpg",2,"B",0.5,-0.5,5,7,5,5,1,6,1,1,4,2,2,6,1,3,5,5,2,7,6,2,3,1,-0.0996542199539233
"CHXWQIBDVIVF",7,"ratings1","B4","na",7,1840,".jpg",4,"B",0.5,-0.5,5,7,5,5,1,6,1,1,4,2,2,6,1,3,5,5,2,7,6,2,3,1,-0.0996542199539233
"CHXWQIBDVIVF",7,"ratings1","M4","na",7,2089,".jpg",12,"M",-0.5,-0.5,5,7,5,5,1,6,1,1,4,2,2,6,1,3,5,5,2,7,6,2,3,1,-0.0996542199539233
"CHXWQIBDVIVF",7,"ratings1","M3","na",3,2014,".jpg",11,"M",-0.5,-0.5,5,7,5,5,1,6,1,1,4,2,2,6,1,3,5,5,2,7,6,2,3,1,-0.0996542199539233
"CHXWQIBDVIVF",7,"ratings1","M8","na",1,937,".jpg",16,"M",-0.5,-0.5,5,7,5,5,1,6,1,1,4,2,2,6,1,3,5,5,2,7,6,2,3,1,-0.0996542199539233
"CHXWQIBDVIVF",7,"ratings1","B1","na",8,1913,".jpg",1,"B",0.5,-0.5,5,7,5,5,1,6,1,1,4,2,2,6,1,3,5,5,2,7,6,2,3,1,-0.0996542199539233
"CHXWQIBDVIVF",7,"ratings1","B5","na",6,1823,".jpg",5,"B",0.5,-0.5,5,7,5,5,1,6,1,1,4,2,2,6,1,3,5,5,2,7,6,2,3,1,-0.0996542199539233
"CHXWQIBDVIVF",7,"ratings1","M6","na",5,1597,".jpg",14,"M",-0.5,-0.5,5,7,5,5,1,6,1,1,4,2,2,6,1,3,5,5,2,7,6,2,3,1,-0.0996542199539233
"CHXWQIBDVIVF",7,"ratings1","M1","na",8,1632,".jpg",9,"M",-0.5,-0.5,5,7,5,5,1,6,1,1,4,2,2,6,1,3,5,5,2,7,6,2,3,1,-0.0996542199539233
"CHXWQIBDVIVF",7,"ratings1","M7","na",8,2482,".jpg",15,"M",-0.5,-0.5,5,7,5,5,1,6,1,1,4,2,2,6,1,3,5,5,2,7,6,2,3,1,-0.0996542199539233
"CHXWQIBDVIVF",7,"ratings1","M5","na",8,2809,".jpg",13,"M",-0.5,-0.5,5,7,5,5,1,6,1,1,4,2,2,6,1,3,5,5,2,7,6,2,3,1,-0.0996542199539233
"CHXWQIBDVIVF",7,"ratings1","B8","na",2,1283,".jpg",8,"B",0.5,-0.5,5,7,5,5,1,6,1,1,4,2,2,6,1,3,5,5,2,7,6,2,3,1,-0.0996542199539233
"CMRECSMBHGVA",6,"ratings1","M2","na",7,5229,".jpg",10,"M",0.5,0.5,7,1,7,3,7,1,1,1,7,1,7,7,7,1,7,7,1,7,7,7,5,7,2.04669584652203
"CMRECSMBHGVA",6,"ratings1","B4","na",4,1846,".jpg",4,"B",-0.5,0.5,7,1,7,3,7,1,1,1,7,1,7,7,7,1,7,7,1,7,7,7,5,7,2.04669584652203
"CMRECSMBHGVA",6,"ratings1","B5","na",4,825,".jpg",5,"B",-0.5,0.5,7,1,7,3,7,1,1,1,7,1,7,7,7,1,7,7,1,7,7,7,5,7,2.04669584652203
"CMRECSMBHGVA",6,"ratings1","M3","na",7,893,".jpg",11,"M",0.5,0.5,7,1,7,3,7,1,1,1,7,1,7,7,7,1,7,7,1,7,7,7,5,7,2.04669584652203
"CMRECSMBHGVA",6,"ratings1","M7","na",7,1227,".jpg",15,"M",0.5,0.5,7,1,7,3,7,1,1,1,7,1,7,7,7,1,7,7,1,7,7,7,5,7,2.04669584652203
"CMRECSMBHGVA",6,"ratings1","B7","na",4,1051,".jpg",7,"B",-0.5,0.5,7,1,7,3,7,1,1,1,7,1,7,7,7,1,7,7,1,7,7,7,5,7,2.04669584652203
"CMRECSMBHGVA",6,"ratings1","B6","na",4,925,".jpg",6,"B",-0.5,0.5,7,1,7,3,7,1,1,1,7,1,7,7,7,1,7,7,1,7,7,7,5,7,2.04669584652203
"CMRECSMBHGVA",6,"ratings1","B3","na",4,829,".jpg",3,"B",-0.5,0.5,7,1,7,3,7,1,1,1,7,1,7,7,7,1,7,7,1,7,7,7,5,7,2.04669584652203
"CMRECSMBHGVA",6,"ratings1","M5","na",4,1317,".jpg",13,"M",0.5,0.5,7,1,7,3,7,1,1,1,7,1,7,7,7,1,7,7,1,7,7,7,5,7,2.04669584652203
"CMRECSMBHGVA",6,"ratings1","M8","na",7,737,".jpg",16,"M",0.5,0.5,7,1,7,3,7,1,1,1,7,1,7,7,7,1,7,7,1,7,7,7,5,7,2.04669584652203
"CMRECSMBHGVA",6,"ratings1","M6","na",7,392,".jpg",14,"M",0.5,0.5,7,1,7,3,7,1,1,1,7,1,7,7,7,1,7,7,1,7,7,7,5,7,2.04669584652203
"CMRECSMBHGVA",6,"ratings1","M4","na",7,592,".jpg",12,"M",0.5,0.5,7,1,7,3,7,1,1,1,7,1,7,7,7,1,7,7,1,7,7,7,5,7,2.04669584652203
"CMRECSMBHGVA",6,"ratings1","B1","na",4,1281,".jpg",1,"B",-0.5,0.5,7,1,7,3,7,1,1,1,7,1,7,7,7,1,7,7,1,7,7,7,5,7,2.04669584652203
"CMRECSMBHGVA",6,"ratings1","B2","na",4,1038,".jpg",2,"B",-0.5,0.5,7,1,7,3,7,1,1,1,7,1,7,7,7,1,7,7,1,7,7,7,5,7,2.04669584652203
"CMRECSMBHGVA",6,"ratings1","M1","na",4,1082,".jpg",9,"M",0.5,0.5,7,1,7,3,7,1,1,1,7,1,7,7,7,1,7,7,1,7,7,7,5,7,2.04669584652203
"CMRECSMBHGVA",6,"ratings1","B8","na",4,777,".jpg",8,"B",-0.5,0.5,7,1,7,3,7,1,1,1,7,1,7,7,7,1,7,7,1,7,7,7,5,7,2.04669584652203
"COJKFMAUCXUM",4,"ratings1","B4","na",7,5644,".jpg",4,"B",-0.5,-0.5,1,7,1,7,5,7,1,7,1,3,1,7,1,7,1,1,1,1,5,1,1,1,-1.51310426373077
"COJKFMAUCXUM",4,"ratings1","M1","na",3,2141,".jpg",9,"M",0.5,-0.5,1,7,1,7,5,7,1,7,1,3,1,7,1,7,1,1,1,1,5,1,1,1,-1.51310426373077
"COJKFMAUCXUM",4,"ratings1","B5","na",6,1378,".jpg",5,"B",-0.5,-0.5,1,7,1,7,5,7,1,7,1,3,1,7,1,7,1,1,1,1,5,1,1,1,-1.51310426373077
"COJKFMAUCXUM",4,"ratings1","B3","na",7,1489,".jpg",3,"B",-0.5,-0.5,1,7,1,7,5,7,1,7,1,3,1,7,1,7,1,1,1,1,5,1,1,1,-1.51310426373077
"COJKFMAUCXUM",4,"ratings1","B1","na",6,1141,".jpg",1,"B",-0.5,-0.5,1,7,1,7,5,7,1,7,1,3,1,7,1,7,1,1,1,1,5,1,1,1,-1.51310426373077
"COJKFMAUCXUM",4,"ratings1","M2","na",3,890,".jpg",10,"M",0.5,-0.5,1,7,1,7,5,7,1,7,1,3,1,7,1,7,1,1,1,1,5,1,1,1,-1.51310426373077
"COJKFMAUCXUM",4,"ratings1","M4","na",2,549,".jpg",12,"M",0.5,-0.5,1,7,1,7,5,7,1,7,1,3,1,7,1,7,1,1,1,1,5,1,1,1,-1.51310426373077
"COJKFMAUCXUM",4,"ratings1","M7","na",3,742,".jpg",15,"M",0.5,-0.5,1,7,1,7,5,7,1,7,1,3,1,7,1,7,1,1,1,1,5,1,1,1,-1.51310426373077
"COJKFMAUCXUM",4,"ratings1","B8","na",6,974,".jpg",8,"B",-0.5,-0.5,1,7,1,7,5,7,1,7,1,3,1,7,1,7,1,1,1,1,5,1,1,1,-1.51310426373077
"COJKFMAUCXUM",4,"ratings1","M6","na",4,834,".jpg",14,"M",0.5,-0.5,1,7,1,7,5,7,1,7,1,3,1,7,1,7,1,1,1,1,5,1,1,1,-1.51310426373077
"COJKFMAUCXUM",4,"ratings1","M3","na",3,1160,".jpg",11,"M",0.5,-0.5,1,7,1,7,5,7,1,7,1,3,1,7,1,7,1,1,1,1,5,1,1,1,-1.51310426373077
"COJKFMAUCXUM",4,"ratings1","B2","na",7,708,".jpg",2,"B",-0.5,-0.5,1,7,1,7,5,7,1,7,1,3,1,7,1,7,1,1,1,1,5,1,1,1,-1.51310426373077
"COJKFMAUCXUM",4,"ratings1","M8","na",2,844,".jpg",16,"M",0.5,-0.5,1,7,1,7,5,7,1,7,1,3,1,7,1,7,1,1,1,1,5,1,1,1,-1.51310426373077
"COJKFMAUCXUM",4,"ratings1","B6","na",8,944,".jpg",6,"B",-0.5,-0.5,1,7,1,7,5,7,1,7,1,3,1,7,1,7,1,1,1,1,5,1,1,1,-1.51310426373077
"COJKFMAUCXUM",4,"ratings1","M5","na",3,742,".jpg",13,"M",0.5,-0.5,1,7,1,7,5,7,1,7,1,3,1,7,1,7,1,1,1,1,5,1,1,1,-1.51310426373077
"COJKFMAUCXUM",4,"ratings1","B7","na",7,1087,".jpg",7,"B",-0.5,-0.5,1,7,1,7,5,7,1,7,1,3,1,7,1,7,1,1,1,1,5,1,1,1,-1.51310426373077
"CPFNMPFUHARP",3,"ratings1","B2","na",2,23364,".jpg",2,"B",0.5,-0.5,1,7,1,7,1,7,1,7,1,4,1,7,1,7,1,1,1,1,4,1,1,1,-1.7748542718376
"CPFNMPFUHARP",3,"ratings1","M5","na",4,9902,".jpg",13,"M",-0.5,-0.5,1,7,1,7,1,7,1,7,1,4,1,7,1,7,1,1,1,1,4,1,1,1,-1.7748542718376
"CPFNMPFUHARP",3,"ratings1","B8","na",6,3607,".jpg",8,"B",0.5,-0.5,1,7,1,7,1,7,1,7,1,4,1,7,1,7,1,1,1,1,4,1,1,1,-1.7748542718376
"CPFNMPFUHARP",3,"ratings1","B7","na",6,1731,".jpg",7,"B",0.5,-0.5,1,7,1,7,1,7,1,7,1,4,1,7,1,7,1,1,1,1,4,1,1,1,-1.7748542718376
"CPFNMPFUHARP",3,"ratings1","B6","na",6,1091,".jpg",6,"B",0.5,-0.5,1,7,1,7,1,7,1,7,1,4,1,7,1,7,1,1,1,1,4,1,1,1,-1.7748542718376
"CPFNMPFUHARP",3,"ratings1","M1","na",4,677,".jpg",9,"M",-0.5,-0.5,1,7,1,7,1,7,1,7,1,4,1,7,1,7,1,1,1,1,4,1,1,1,-1.7748542718376
"CPFNMPFUHARP",3,"ratings1","M8","na",4,568,".jpg",16,"M",-0.5,-0.5,1,7,1,7,1,7,1,7,1,4,1,7,1,7,1,1,1,1,4,1,1,1,-1.7748542718376
"CPFNMPFUHARP",3,"ratings1","B5","na",6,847,".jpg",5,"B",0.5,-0.5,1,7,1,7,1,7,1,7,1,4,1,7,1,7,1,1,1,1,4,1,1,1,-1.7748542718376
"CPFNMPFUHARP",3,"ratings1","B3","na",6,668,".jpg",3,"B",0.5,-0.5,1,7,1,7,1,7,1,7,1,4,1,7,1,7,1,1,1,1,4,1,1,1,-1.7748542718376
"CPFNMPFUHARP",3,"ratings1","M7","na",4,1212,".jpg",15,"M",-0.5,-0.5,1,7,1,7,1,7,1,7,1,4,1,7,1,7,1,1,1,1,4,1,1,1,-1.7748542718376
"CPFNMPFUHARP",3,"ratings1","M4","na",4,960,".jpg",12,"M",-0.5,-0.5,1,7,1,7,1,7,1,7,1,4,1,7,1,7,1,1,1,1,4,1,1,1,-1.7748542718376
"CPFNMPFUHARP",3,"ratings1","M6","na",4,2298,".jpg",14,"M",-0.5,-0.5,1,7,1,7,1,7,1,7,1,4,1,7,1,7,1,1,1,1,4,1,1,1,-1.7748542718376
"CPFNMPFUHARP",3,"ratings1","B4","na",6,838,".jpg",4,"B",0.5,-0.5,1,7,1,7,1,7,1,7,1,4,1,7,1,7,1,1,1,1,4,1,1,1,-1.7748542718376
"CPFNMPFUHARP",3,"ratings1","M3","na",4,520,".jpg",11,"M",-0.5,-0.5,1,7,1,7,1,7,1,7,1,4,1,7,1,7,1,1,1,1,4,1,1,1,-1.7748542718376
"CPFNMPFUHARP",3,"ratings1","M2","na",4,485,".jpg",10,"M",-0.5,-0.5,1,7,1,7,1,7,1,7,1,4,1,7,1,7,1,1,1,1,4,1,1,1,-1.7748542718376
"CPFNMPFUHARP",3,"ratings1","B1","na",6,660,".jpg",1,"B",0.5,-0.5,1,7,1,7,1,7,1,7,1,4,1,7,1,7,1,1,1,1,4,1,1,1,-1.7748542718376
"CPQPCTGTWTOI",1,"ratings1","M8","na",4,11379,".jpg",16,"M",-0.5,0.5,2,2,4,4,3,2,4,4,2,2,2,4,4,4,2,4,4,4,6,6,4,6,0.26679579139563
"CPQPCTGTWTOI",1,"ratings1","M2","na",5,46,".jpg",10,"M",-0.5,0.5,2,2,4,4,3,2,4,4,2,2,2,4,4,4,2,4,4,4,6,6,4,6,0.26679579139563
"CPQPCTGTWTOI",1,"ratings1","M6","na",5,17,".jpg",14,"M",-0.5,0.5,2,2,4,4,3,2,4,4,2,2,2,4,4,4,2,4,4,4,6,6,4,6,0.26679579139563
"CPQPCTGTWTOI",1,"ratings1","M7","na",2,34234,".jpg",15,"M",-0.5,0.5,2,2,4,4,3,2,4,4,2,2,2,4,4,4,2,4,4,4,6,6,4,6,0.26679579139563
"CPQPCTGTWTOI",1,"ratings1","B2","na",1,178,".jpg",2,"B",0.5,0.5,2,2,4,4,3,2,4,4,2,2,2,4,4,4,2,4,4,4,6,6,4,6,0.26679579139563
"CPQPCTGTWTOI",1,"ratings1","B4","na",3,405,".jpg",4,"B",0.5,0.5,2,2,4,4,3,2,4,4,2,2,2,4,4,4,2,4,4,4,6,6,4,6,0.26679579139563
"CPQPCTGTWTOI",1,"ratings1","M3","na",1,184,".jpg",11,"M",-0.5,0.5,2,2,4,4,3,2,4,4,2,2,2,4,4,4,2,4,4,4,6,6,4,6,0.26679579139563
"CPQPCTGTWTOI",1,"ratings1","M1","na",3,138,".jpg",9,"M",-0.5,0.5,2,2,4,4,3,2,4,4,2,2,2,4,4,4,2,4,4,4,6,6,4,6,0.26679579139563
"CPQPCTGTWTOI",1,"ratings1","B1","na",3,19,".jpg",1,"B",0.5,0.5,2,2,4,4,3,2,4,4,2,2,2,4,4,4,2,4,4,4,6,6,4,6,0.26679579139563
"CPQPCTGTWTOI",1,"ratings1","B5","na",3,17,".jpg",5,"B",0.5,0.5,2,2,4,4,3,2,4,4,2,2,2,4,4,4,2,4,4,4,6,6,4,6,0.26679579139563
"CPQPCTGTWTOI",1,"ratings1","B6","na",3,118,".jpg",6,"B",0.5,0.5,2,2,4,4,3,2,4,4,2,2,2,4,4,4,2,4,4,4,6,6,4,6,0.26679579139563
"CPQPCTGTWTOI",1,"ratings1","B7","na",3,136,".jpg",7,"B",0.5,0.5,2,2,4,4,3,2,4,4,2,2,2,4,4,4,2,4,4,4,6,6,4,6,0.26679579139563
"CPQPCTGTWTOI",1,"ratings1","B8","na",1,86,".jpg",8,"B",0.5,0.5,2,2,4,4,3,2,4,4,2,2,2,4,4,4,2,4,4,4,6,6,4,6,0.26679579139563
"CPQPCTGTWTOI",1,"ratings1","B3","na",1,257,".jpg",3,"B",0.5,0.5,2,2,4,4,3,2,4,4,2,2,2,4,4,4,2,4,4,4,6,6,4,6,0.26679579139563
"CPQPCTGTWTOI",1,"ratings1","M4","na",1,228,".jpg",12,"M",-0.5,0.5,2,2,4,4,3,2,4,4,2,2,2,4,4,4,2,4,4,4,6,6,4,6,0.26679579139563
"CPQPCTGTWTOI",1,"ratings1","M5","na",3,106,".jpg",13,"M",-0.5,0.5,2,2,4,4,3,2,4,4,2,2,2,4,4,4,2,4,4,4,6,6,4,6,0.26679579139563
"CPXRWJDFQQHB",4,"ratings1","M7","na",8,7370,".jpg",15,"M",0.5,-0.5,7,6,5,7,1,6,1,5,3,5,1,7,5,7,7,1,1,3,3,2,1,2,-0.466104231303477
"CPXRWJDFQQHB",4,"ratings1","M8","na",8,2869,".jpg",16,"M",0.5,-0.5,7,6,5,7,1,6,1,5,3,5,1,7,5,7,7,1,1,3,3,2,1,2,-0.466104231303477
"CPXRWJDFQQHB",4,"ratings1","M6","na",7,1647,".jpg",14,"M",0.5,-0.5,7,6,5,7,1,6,1,5,3,5,1,7,5,7,7,1,1,3,3,2,1,2,-0.466104231303477
"CPXRWJDFQQHB",4,"ratings1","B7","na",3,2253,".jpg",7,"B",-0.5,-0.5,7,6,5,7,1,6,1,5,3,5,1,7,5,7,7,1,1,3,3,2,1,2,-0.466104231303477
"CPXRWJDFQQHB",4,"ratings1","M2","na",9,2500,".jpg",10,"M",0.5,-0.5,7,6,5,7,1,6,1,5,3,5,1,7,5,7,7,1,1,3,3,2,1,2,-0.466104231303477
"CPXRWJDFQQHB",4,"ratings1","B4","na",2,1363,".jpg",4,"B",-0.5,-0.5,7,6,5,7,1,6,1,5,3,5,1,7,5,7,7,1,1,3,3,2,1,2,-0.466104231303477
"CPXRWJDFQQHB",4,"ratings1","B3","na",3,2294,".jpg",3,"B",-0.5,-0.5,7,6,5,7,1,6,1,5,3,5,1,7,5,7,7,1,1,3,3,2,1,2,-0.466104231303477
"CPXRWJDFQQHB",4,"ratings1","M1","na",9,1912,".jpg",9,"M",0.5,-0.5,7,6,5,7,1,6,1,5,3,5,1,7,5,7,7,1,1,3,3,2,1,2,-0.466104231303477
"CPXRWJDFQQHB",4,"ratings1","B6","na",3,2267,".jpg",6,"B",-0.5,-0.5,7,6,5,7,1,6,1,5,3,5,1,7,5,7,7,1,1,3,3,2,1,2,-0.466104231303477
"CPXRWJDFQQHB",4,"ratings1","M5","na",8,1906,".jpg",13,"M",0.5,-0.5,7,6,5,7,1,6,1,5,3,5,1,7,5,7,7,1,1,3,3,2,1,2,-0.466104231303477
"CPXRWJDFQQHB",4,"ratings1","B1","na",4,673,".jpg",1,"B",-0.5,-0.5,7,6,5,7,1,6,1,5,3,5,1,7,5,7,7,1,1,3,3,2,1,2,-0.466104231303477
"CPXRWJDFQQHB",4,"ratings1","B5","na",3,900,".jpg",5,"B",-0.5,-0.5,7,6,5,7,1,6,1,5,3,5,1,7,5,7,7,1,1,3,3,2,1,2,-0.466104231303477
"CPXRWJDFQQHB",4,"ratings1","M3","na",8,1584,".jpg",11,"M",0.5,-0.5,7,6,5,7,1,6,1,5,3,5,1,7,5,7,7,1,1,3,3,2,1,2,-0.466104231303477
"CPXRWJDFQQHB",4,"ratings1","B8","na",3,949,".jpg",8,"B",-0.5,-0.5,7,6,5,7,1,6,1,5,3,5,1,7,5,7,7,1,1,3,3,2,1,2,-0.466104231303477
"CPXRWJDFQQHB",4,"ratings1","M4","na",7,1248,".jpg",12,"M",0.5,-0.5,7,6,5,7,1,6,1,5,3,5,1,7,5,7,7,1,1,3,3,2,1,2,-0.466104231303477
"CPXRWJDFQQHB",4,"ratings1","B2","na",3,1020,".jpg",2,"B",-0.5,-0.5,7,6,5,7,1,6,1,5,3,5,1,7,5,7,7,1,1,3,3,2,1,2,-0.466104231303477
"CQZWGEZYXVEX",5,"ratings1","M6","na",3,4352,".jpg",14,"M",-0.5,0.5,5,6,3,7,2,6,1,3,4,6,3,6,2,6,3,2,2,5,2,2,1,2,-0.675504237788936
"CQZWGEZYXVEX",5,"ratings1","B4","na",6,1521,".jpg",4,"B",0.5,0.5,5,6,3,7,2,6,1,3,4,6,3,6,2,6,3,2,2,5,2,2,1,2,-0.675504237788936
"CQZWGEZYXVEX",5,"ratings1","B8","na",5,2155,".jpg",8,"B",0.5,0.5,5,6,3,7,2,6,1,3,4,6,3,6,2,6,3,2,2,5,2,2,1,2,-0.675504237788936
"CQZWGEZYXVEX",5,"ratings1","M4","na",2,1285,".jpg",12,"M",-0.5,0.5,5,6,3,7,2,6,1,3,4,6,3,6,2,6,3,2,2,5,2,2,1,2,-0.675504237788936
"CQZWGEZYXVEX",5,"ratings1","B1","na",6,850,".jpg",1,"B",0.5,0.5,5,6,3,7,2,6,1,3,4,6,3,6,2,6,3,2,2,5,2,2,1,2,-0.675504237788936
"CQZWGEZYXVEX",5,"ratings1","M7","na",4,2123,".jpg",15,"M",-0.5,0.5,5,6,3,7,2,6,1,3,4,6,3,6,2,6,3,2,2,5,2,2,1,2,-0.675504237788936
"CQZWGEZYXVEX",5,"ratings1","M2","na",4,950,".jpg",10,"M",-0.5,0.5,5,6,3,7,2,6,1,3,4,6,3,6,2,6,3,2,2,5,2,2,1,2,-0.675504237788936
"CQZWGEZYXVEX",5,"ratings1","B6","na",6,5532,".jpg",6,"B",0.5,0.5,5,6,3,7,2,6,1,3,4,6,3,6,2,6,3,2,2,5,2,2,1,2,-0.675504237788936
"CQZWGEZYXVEX",5,"ratings1","M8","na",3,996,".jpg",16,"M",-0.5,0.5,5,6,3,7,2,6,1,3,4,6,3,6,2,6,3,2,2,5,2,2,1,2,-0.675504237788936
"CQZWGEZYXVEX",5,"ratings1","B5","na",7,1341,".jpg",5,"B",0.5,0.5,5,6,3,7,2,6,1,3,4,6,3,6,2,6,3,2,2,5,2,2,1,2,-0.675504237788936
"CQZWGEZYXVEX",5,"ratings1","M1","na",3,1140,".jpg",9,"M",-0.5,0.5,5,6,3,7,2,6,1,3,4,6,3,6,2,6,3,2,2,5,2,2,1,2,-0.675504237788936
"CQZWGEZYXVEX",5,"ratings1","M3","na",3,884,".jpg",11,"M",-0.5,0.5,5,6,3,7,2,6,1,3,4,6,3,6,2,6,3,2,2,5,2,2,1,2,-0.675504237788936
"CQZWGEZYXVEX",5,"ratings1","M5","na",3,699,".jpg",13,"M",-0.5,0.5,5,6,3,7,2,6,1,3,4,6,3,6,2,6,3,2,2,5,2,2,1,2,-0.675504237788936
"CQZWGEZYXVEX",5,"ratings1","B2","na",6,3334,".jpg",2,"B",0.5,0.5,5,6,3,7,2,6,1,3,4,6,3,6,2,6,3,2,2,5,2,2,1,2,-0.675504237788936
"CQZWGEZYXVEX",5,"ratings1","B7","na",7,850,".jpg",7,"B",0.5,0.5,5,6,3,7,2,6,1,3,4,6,3,6,2,6,3,2,2,5,2,2,1,2,-0.675504237788936
"CQZWGEZYXVEX",5,"ratings1","B3","na",7,937,".jpg",3,"B",0.5,0.5,5,6,3,7,2,6,1,3,4,6,3,6,2,6,3,2,2,5,2,2,1,2,-0.675504237788936
"CSCRUETFCQAN",5,"ratings1","M8","na",9,72091,".jpg",16,"M",-0.5,0.5,7,4,7,7,3,4,7,7,4,7,7,6,4,6,7,2,2,1,1,4,1,4,0.47619579788109
"CSCRUETFCQAN",5,"ratings1","M3","na",9,2947,".jpg",11,"M",-0.5,0.5,7,4,7,7,3,4,7,7,4,7,7,6,4,6,7,2,2,1,1,4,1,4,0.47619579788109
"CSCRUETFCQAN",5,"ratings1","B3","na",9,11307,".jpg",3,"B",0.5,0.5,7,4,7,7,3,4,7,7,4,7,7,6,4,6,7,2,2,1,1,4,1,4,0.47619579788109
"CSCRUETFCQAN",5,"ratings1","B8","na",9,777,".jpg",8,"B",0.5,0.5,7,4,7,7,3,4,7,7,4,7,7,6,4,6,7,2,2,1,1,4,1,4,0.47619579788109
"CSCRUETFCQAN",5,"ratings1","M2","na",9,609,".jpg",10,"M",-0.5,0.5,7,4,7,7,3,4,7,7,4,7,7,6,4,6,7,2,2,1,1,4,1,4,0.47619579788109
"CSCRUETFCQAN",5,"ratings1","B2","na",9,602,".jpg",2,"B",0.5,0.5,7,4,7,7,3,4,7,7,4,7,7,6,4,6,7,2,2,1,1,4,1,4,0.47619579788109
"CSCRUETFCQAN",5,"ratings1","B5","na",9,490,".jpg",5,"B",0.5,0.5,7,4,7,7,3,4,7,7,4,7,7,6,4,6,7,2,2,1,1,4,1,4,0.47619579788109
"CSCRUETFCQAN",5,"ratings1","M7","na",3,4945,".jpg",15,"M",-0.5,0.5,7,4,7,7,3,4,7,7,4,7,7,6,4,6,7,2,2,1,1,4,1,4,0.47619579788109
"CSCRUETFCQAN",5,"ratings1","M6","na",3,939,".jpg",14,"M",-0.5,0.5,7,4,7,7,3,4,7,7,4,7,7,6,4,6,7,2,2,1,1,4,1,4,0.47619579788109
"CSCRUETFCQAN",5,"ratings1","M4","na",3,714,".jpg",12,"M",-0.5,0.5,7,4,7,7,3,4,7,7,4,7,7,6,4,6,7,2,2,1,1,4,1,4,0.47619579788109
"CSCRUETFCQAN",5,"ratings1","B6","na",9,787,".jpg",6,"B",0.5,0.5,7,4,7,7,3,4,7,7,4,7,7,6,4,6,7,2,2,1,1,4,1,4,0.47619579788109
"CSCRUETFCQAN",5,"ratings1","M5","na",3,602,".jpg",13,"M",-0.5,0.5,7,4,7,7,3,4,7,7,4,7,7,6,4,6,7,2,2,1,1,4,1,4,0.47619579788109
"CSCRUETFCQAN",5,"ratings1","B1","na",9,602,".jpg",1,"B",0.5,0.5,7,4,7,7,3,4,7,7,4,7,7,6,4,6,7,2,2,1,1,4,1,4,0.47619579788109
"CSCRUETFCQAN",5,"ratings1","B4","na",3,714,".jpg",4,"B",0.5,0.5,7,4,7,7,3,4,7,7,4,7,7,6,4,6,7,2,2,1,1,4,1,4,0.47619579788109
"CSCRUETFCQAN",5,"ratings1","B7","na",9,756,".jpg",7,"B",0.5,0.5,7,4,7,7,3,4,7,7,4,7,7,6,4,6,7,2,2,1,1,4,1,4,0.47619579788109
"CSCRUETFCQAN",5,"ratings1","M1","na",3,873,".jpg",9,"M",-0.5,0.5,7,4,7,7,3,4,7,7,4,7,7,6,4,6,7,2,2,1,1,4,1,4,0.47619579788109
"CSMAXTIHOMEA",3,"ratings1","B3","na",5,4451,".jpg",3,"B",0.5,-0.5,7,6,7,7,7,7,4,2,7,1,7,4,7,3,1,5,4,6,7,1,1,2,1.10439581733747
"CSMAXTIHOMEA",3,"ratings1","B2","na",5,840,".jpg",2,"B",0.5,-0.5,7,6,7,7,7,7,4,2,7,1,7,4,7,3,1,5,4,6,7,1,1,2,1.10439581733747
"CSMAXTIHOMEA",3,"ratings1","B8","na",6,450,".jpg",8,"B",0.5,-0.5,7,6,7,7,7,7,4,2,7,1,7,4,7,3,1,5,4,6,7,1,1,2,1.10439581733747
"CSMAXTIHOMEA",3,"ratings1","M6","na",4,657,".jpg",14,"M",-0.5,-0.5,7,6,7,7,7,7,4,2,7,1,7,4,7,3,1,5,4,6,7,1,1,2,1.10439581733747
"CSMAXTIHOMEA",3,"ratings1","M7","na",6,849,".jpg",15,"M",-0.5,-0.5,7,6,7,7,7,7,4,2,7,1,7,4,7,3,1,5,4,6,7,1,1,2,1.10439581733747
"CSMAXTIHOMEA",3,"ratings1","B7","na",9,4147,".jpg",7,"B",0.5,-0.5,7,6,7,7,7,7,4,2,7,1,7,4,7,3,1,5,4,6,7,1,1,2,1.10439581733747
"CSMAXTIHOMEA",3,"ratings1","B4","na",9,1497,".jpg",4,"B",0.5,-0.5,7,6,7,7,7,7,4,2,7,1,7,4,7,3,1,5,4,6,7,1,1,2,1.10439581733747
"CSMAXTIHOMEA",3,"ratings1","B6","na",1,2124,".jpg",6,"B",0.5,-0.5,7,6,7,7,7,7,4,2,7,1,7,4,7,3,1,5,4,6,7,1,1,2,1.10439581733747
"CSMAXTIHOMEA",3,"ratings1","M2","na",9,739,".jpg",10,"M",-0.5,-0.5,7,6,7,7,7,7,4,2,7,1,7,4,7,3,1,5,4,6,7,1,1,2,1.10439581733747
"CSMAXTIHOMEA",3,"ratings1","B5","na",9,769,".jpg",5,"B",0.5,-0.5,7,6,7,7,7,7,4,2,7,1,7,4,7,3,1,5,4,6,7,1,1,2,1.10439581733747
"CSMAXTIHOMEA",3,"ratings1","M3","na",2,520,".jpg",11,"M",-0.5,-0.5,7,6,7,7,7,7,4,2,7,1,7,4,7,3,1,5,4,6,7,1,1,2,1.10439581733747
"CSMAXTIHOMEA",3,"ratings1","M1","na",9,562,".jpg",9,"M",-0.5,-0.5,7,6,7,7,7,7,4,2,7,1,7,4,7,3,1,5,4,6,7,1,1,2,1.10439581733747
"CSMAXTIHOMEA",3,"ratings1","B1","na",3,367,".jpg",1,"B",0.5,-0.5,7,6,7,7,7,7,4,2,7,1,7,4,7,3,1,5,4,6,7,1,1,2,1.10439581733747
"CSMAXTIHOMEA",3,"ratings1","M5","na",9,536,".jpg",13,"M",-0.5,-0.5,7,6,7,7,7,7,4,2,7,1,7,4,7,3,1,5,4,6,7,1,1,2,1.10439581733747
"CSMAXTIHOMEA",3,"ratings1","M8","na",1,1193,".jpg",16,"M",-0.5,-0.5,7,6,7,7,7,7,4,2,7,1,7,4,7,3,1,5,4,6,7,1,1,2,1.10439581733747
"CSMAXTIHOMEA",3,"ratings1","M4","na",2,606,".jpg",12,"M",-0.5,-0.5,7,6,7,7,7,7,4,2,7,1,7,4,7,3,1,5,4,6,7,1,1,2,1.10439581733747
"CTGKOUTYRMIA",1,"ratings1","M6","na",9,3024,".jpg",14,"M",-0.5,0.5,1,4,1,7,1,7,1,4,1,7,1,7,3,1,1,7,1,4,1,1,1,4,-1.19900425400258
"CTGKOUTYRMIA",1,"ratings1","B3","na",2,1733,".jpg",3,"B",0.5,0.5,1,4,1,7,1,7,1,4,1,7,1,7,3,1,1,7,1,4,1,1,1,4,-1.19900425400258
"CTGKOUTYRMIA",1,"ratings1","B2","na",1,2375,".jpg",2,"B",0.5,0.5,1,4,1,7,1,7,1,4,1,7,1,7,3,1,1,7,1,4,1,1,1,4,-1.19900425400258
"CTGKOUTYRMIA",1,"ratings1","M1","na",4,1877,".jpg",9,"M",-0.5,0.5,1,4,1,7,1,7,1,4,1,7,1,7,3,1,1,7,1,4,1,1,1,4,-1.19900425400258
"CTGKOUTYRMIA",1,"ratings1","M4","na",4,1043,".jpg",12,"M",-0.5,0.5,1,4,1,7,1,7,1,4,1,7,1,7,3,1,1,7,1,4,1,1,1,4,-1.19900425400258
"CTGKOUTYRMIA",1,"ratings1","M7","na",2,1250,".jpg",15,"M",-0.5,0.5,1,4,1,7,1,7,1,4,1,7,1,7,3,1,1,7,1,4,1,1,1,4,-1.19900425400258
"CTGKOUTYRMIA",1,"ratings1","B5","na",1,715,".jpg",5,"B",0.5,0.5,1,4,1,7,1,7,1,4,1,7,1,7,3,1,1,7,1,4,1,1,1,4,-1.19900425400258
"CTGKOUTYRMIA",1,"ratings1","M5","na",1,723,".jpg",13,"M",-0.5,0.5,1,4,1,7,1,7,1,4,1,7,1,7,3,1,1,7,1,4,1,1,1,4,-1.19900425400258
"CTGKOUTYRMIA",1,"ratings1","B6","na",3,400,".jpg",6,"B",0.5,0.5,1,4,1,7,1,7,1,4,1,7,1,7,3,1,1,7,1,4,1,1,1,4,-1.19900425400258
"CTGKOUTYRMIA",1,"ratings1","B1","na",2,780,".jpg",1,"B",0.5,0.5,1,4,1,7,1,7,1,4,1,7,1,7,3,1,1,7,1,4,1,1,1,4,-1.19900425400258
"CTGKOUTYRMIA",1,"ratings1","M8","na",4,1012,".jpg",16,"M",-0.5,0.5,1,4,1,7,1,7,1,4,1,7,1,7,3,1,1,7,1,4,1,1,1,4,-1.19900425400258
"CTGKOUTYRMIA",1,"ratings1","B8","na",1,466,".jpg",8,"B",0.5,0.5,1,4,1,7,1,7,1,4,1,7,1,7,3,1,1,7,1,4,1,1,1,4,-1.19900425400258
"CTGKOUTYRMIA",1,"ratings1","M3","na",1,435,".jpg",11,"M",-0.5,0.5,1,4,1,7,1,7,1,4,1,7,1,7,3,1,1,7,1,4,1,1,1,4,-1.19900425400258
"CTGKOUTYRMIA",1,"ratings1","B7","na",1,548,".jpg",7,"B",0.5,0.5,1,4,1,7,1,7,1,4,1,7,1,7,3,1,1,7,1,4,1,1,1,4,-1.19900425400258
"CTGKOUTYRMIA",1,"ratings1","M2","na",3,1685,".jpg",10,"M",-0.5,0.5,1,4,1,7,1,7,1,4,1,7,1,7,3,1,1,7,1,4,1,1,1,4,-1.19900425400258
"CTGKOUTYRMIA",1,"ratings1","B4","na",3,2023,".jpg",4,"B",0.5,0.5,1,4,1,7,1,7,1,4,1,7,1,7,3,1,1,7,1,4,1,1,1,4,-1.19900425400258
"CUKVAGWNRIVZ",4,"ratings1","M7","na",6,8983,".jpg",15,"M",0.5,-0.5,1,7,2,7,1,7,1,1,1,7,1,7,4,5,1,3,1,7,1,1,1,1,-1.30370425724531
"CUKVAGWNRIVZ",4,"ratings1","M5","na",6,5311,".jpg",13,"M",0.5,-0.5,1,7,2,7,1,7,1,1,1,7,1,7,4,5,1,3,1,7,1,1,1,1,-1.30370425724531
"CUKVAGWNRIVZ",4,"ratings1","M2","na",5,1740,".jpg",10,"M",0.5,-0.5,1,7,2,7,1,7,1,1,1,7,1,7,4,5,1,3,1,7,1,1,1,1,-1.30370425724531
"CUKVAGWNRIVZ",4,"ratings1","B2","na",6,2616,".jpg",2,"B",-0.5,-0.5,1,7,2,7,1,7,1,1,1,7,1,7,4,5,1,3,1,7,1,1,1,1,-1.30370425724531
"CUKVAGWNRIVZ",4,"ratings1","M4","na",5,1655,".jpg",12,"M",0.5,-0.5,1,7,2,7,1,7,1,1,1,7,1,7,4,5,1,3,1,7,1,1,1,1,-1.30370425724531
"CUKVAGWNRIVZ",4,"ratings1","M6","na",6,2614,".jpg",14,"M",0.5,-0.5,1,7,2,7,1,7,1,1,1,7,1,7,4,5,1,3,1,7,1,1,1,1,-1.30370425724531
"CUKVAGWNRIVZ",4,"ratings1","B7","na",6,1438,".jpg",7,"B",-0.5,-0.5,1,7,2,7,1,7,1,1,1,7,1,7,4,5,1,3,1,7,1,1,1,1,-1.30370425724531
"CUKVAGWNRIVZ",4,"ratings1","M3","na",6,1525,".jpg",11,"M",0.5,-0.5,1,7,2,7,1,7,1,1,1,7,1,7,4,5,1,3,1,7,1,1,1,1,-1.30370425724531
"CUKVAGWNRIVZ",4,"ratings1","B4","na",4,1445,".jpg",4,"B",-0.5,-0.5,1,7,2,7,1,7,1,1,1,7,1,7,4,5,1,3,1,7,1,1,1,1,-1.30370425724531
"CUKVAGWNRIVZ",4,"ratings1","B1","na",4,3137,".jpg",1,"B",-0.5,-0.5,1,7,2,7,1,7,1,1,1,7,1,7,4,5,1,3,1,7,1,1,1,1,-1.30370425724531
"CUKVAGWNRIVZ",4,"ratings1","B5","na",4,3796,".jpg",5,"B",-0.5,-0.5,1,7,2,7,1,7,1,1,1,7,1,7,4,5,1,3,1,7,1,1,1,1,-1.30370425724531
"CUKVAGWNRIVZ",4,"ratings1","B6","na",6,1197,".jpg",6,"B",-0.5,-0.5,1,7,2,7,1,7,1,1,1,7,1,7,4,5,1,3,1,7,1,1,1,1,-1.30370425724531
"CUKVAGWNRIVZ",4,"ratings1","M1","na",6,1901,".jpg",9,"M",0.5,-0.5,1,7,2,7,1,7,1,1,1,7,1,7,4,5,1,3,1,7,1,1,1,1,-1.30370425724531
"CUKVAGWNRIVZ",4,"ratings1","B8","na",4,1835,".jpg",8,"B",-0.5,-0.5,1,7,2,7,1,7,1,1,1,7,1,7,4,5,1,3,1,7,1,1,1,1,-1.30370425724531
"CUKVAGWNRIVZ",4,"ratings1","M8","na",5,2040,".jpg",16,"M",0.5,-0.5,1,7,2,7,1,7,1,1,1,7,1,7,4,5,1,3,1,7,1,1,1,1,-1.30370425724531
"CUKVAGWNRIVZ",4,"ratings1","B3","na",5,1062,".jpg",3,"B",-0.5,-0.5,1,7,2,7,1,7,1,1,1,7,1,7,4,5,1,3,1,7,1,1,1,1,-1.30370425724531
"CUZCNUWSQJSJ",5,"ratings1","M5","na",1,4269,".jpg",13,"M",-0.5,0.5,6,7,6,5,1,1,5,3,1,6,2,2,1,4,1,4,6,5,2,7,3,1,-0.0473042183325585
"CUZCNUWSQJSJ",5,"ratings1","M3","na",1,994,".jpg",11,"M",-0.5,0.5,6,7,6,5,1,1,5,3,1,6,2,2,1,4,1,4,6,5,2,7,3,1,-0.0473042183325585
"CUZCNUWSQJSJ",5,"ratings1","M8","na",1,643,".jpg",16,"M",-0.5,0.5,6,7,6,5,1,1,5,3,1,6,2,2,1,4,1,4,6,5,2,7,3,1,-0.0473042183325585
"CUZCNUWSQJSJ",5,"ratings1","B4","na",9,3003,".jpg",4,"B",0.5,0.5,6,7,6,5,1,1,5,3,1,6,2,2,1,4,1,4,6,5,2,7,3,1,-0.0473042183325585
"CUZCNUWSQJSJ",5,"ratings1","B6","na",9,594,".jpg",6,"B",0.5,0.5,6,7,6,5,1,1,5,3,1,6,2,2,1,4,1,4,6,5,2,7,3,1,-0.0473042183325585
"CUZCNUWSQJSJ",5,"ratings1","B3","na",8,1387,".jpg",3,"B",0.5,0.5,6,7,6,5,1,1,5,3,1,6,2,2,1,4,1,4,6,5,2,7,3,1,-0.0473042183325585
"CUZCNUWSQJSJ",5,"ratings1","M7","na",1,909,".jpg",15,"M",-0.5,0.5,6,7,6,5,1,1,5,3,1,6,2,2,1,4,1,4,6,5,2,7,3,1,-0.0473042183325585
"CUZCNUWSQJSJ",5,"ratings1","M2","na",2,1490,".jpg",10,"M",-0.5,0.5,6,7,6,5,1,1,5,3,1,6,2,2,1,4,1,4,6,5,2,7,3,1,-0.0473042183325585
"CUZCNUWSQJSJ",5,"ratings1","B1","na",9,1419,".jpg",1,"B",0.5,0.5,6,7,6,5,1,1,5,3,1,6,2,2,1,4,1,4,6,5,2,7,3,1,-0.0473042183325585
"CUZCNUWSQJSJ",5,"ratings1","M6","na",2,1315,".jpg",14,"M",-0.5,0.5,6,7,6,5,1,1,5,3,1,6,2,2,1,4,1,4,6,5,2,7,3,1,-0.0473042183325585
"CUZCNUWSQJSJ",5,"ratings1","B5","na",9,786,".jpg",5,"B",0.5,0.5,6,7,6,5,1,1,5,3,1,6,2,2,1,4,1,4,6,5,2,7,3,1,-0.0473042183325585
"CUZCNUWSQJSJ",5,"ratings1","M1","na",2,587,".jpg",9,"M",-0.5,0.5,6,7,6,5,1,1,5,3,1,6,2,2,1,4,1,4,6,5,2,7,3,1,-0.0473042183325585
"CUZCNUWSQJSJ",5,"ratings1","M4","na",9,395,".jpg",12,"M",-0.5,0.5,6,7,6,5,1,1,5,3,1,6,2,2,1,4,1,4,6,5,2,7,3,1,-0.0473042183325585
"CUZCNUWSQJSJ",5,"ratings1","B7","na",2,411,".jpg",7,"B",0.5,0.5,6,7,6,5,1,1,5,3,1,6,2,2,1,4,1,4,6,5,2,7,3,1,-0.0473042183325585
"CUZCNUWSQJSJ",5,"ratings1","B8","na",9,854,".jpg",8,"B",0.5,0.5,6,7,6,5,1,1,5,3,1,6,2,2,1,4,1,4,6,5,2,7,3,1,-0.0473042183325585
"CUZCNUWSQJSJ",5,"ratings1","B2","na",9,297,".jpg",2,"B",0.5,0.5,6,7,6,5,1,1,5,3,1,6,2,2,1,4,1,4,6,5,2,7,3,1,-0.0473042183325585
"DBYUQXXUIROK",5,"ratings1","B2","na",2,5369,".jpg",2,"B",0.5,0.5,6,6,5,4,4,4,3,3,6,4,5,3,6,4,6,4,5,5,4,4,4,2,0.894995810852008
"DBYUQXXUIROK",5,"ratings1","B7","na",3,3539,".jpg",7,"B",0.5,0.5,6,6,5,4,4,4,3,3,6,4,5,3,6,4,6,4,5,5,4,4,4,2,0.894995810852008
"DBYUQXXUIROK",5,"ratings1","B5","na",2,2408,".jpg",5,"B",0.5,0.5,6,6,5,4,4,4,3,3,6,4,5,3,6,4,6,4,5,5,4,4,4,2,0.894995810852008
"DBYUQXXUIROK",5,"ratings1","M8","na",8,2438,".jpg",16,"M",-0.5,0.5,6,6,5,4,4,4,3,3,6,4,5,3,6,4,6,4,5,5,4,4,4,2,0.894995810852008
"DBYUQXXUIROK",5,"ratings1","M7","na",9,1976,".jpg",15,"M",-0.5,0.5,6,6,5,4,4,4,3,3,6,4,5,3,6,4,6,4,5,5,4,4,4,2,0.894995810852008
"DBYUQXXUIROK",5,"ratings1","B3","na",2,3767,".jpg",3,"B",0.5,0.5,6,6,5,4,4,4,3,3,6,4,5,3,6,4,6,4,5,5,4,4,4,2,0.894995810852008
"DBYUQXXUIROK",5,"ratings1","B6","na",3,2523,".jpg",6,"B",0.5,0.5,6,6,5,4,4,4,3,3,6,4,5,3,6,4,6,4,5,5,4,4,4,2,0.894995810852008
"DBYUQXXUIROK",5,"ratings1","M2","na",8,2048,".jpg",10,"M",-0.5,0.5,6,6,5,4,4,4,3,3,6,4,5,3,6,4,6,4,5,5,4,4,4,2,0.894995810852008
"DBYUQXXUIROK",5,"ratings1","M1","na",8,1495,".jpg",9,"M",-0.5,0.5,6,6,5,4,4,4,3,3,6,4,5,3,6,4,6,4,5,5,4,4,4,2,0.894995810852008
"DBYUQXXUIROK",5,"ratings1","B4","na",4,6442,".jpg",4,"B",0.5,0.5,6,6,5,4,4,4,3,3,6,4,5,3,6,4,6,4,5,5,4,4,4,2,0.894995810852008
"DBYUQXXUIROK",5,"ratings1","B1","na",2,4283,".jpg",1,"B",0.5,0.5,6,6,5,4,4,4,3,3,6,4,5,3,6,4,6,4,5,5,4,4,4,2,0.894995810852008
"DBYUQXXUIROK",5,"ratings1","M5","na",9,2260,".jpg",13,"M",-0.5,0.5,6,6,5,4,4,4,3,3,6,4,5,3,6,4,6,4,5,5,4,4,4,2,0.894995810852008
"DBYUQXXUIROK",5,"ratings1","M3","na",8,1068,".jpg",11,"M",-0.5,0.5,6,6,5,4,4,4,3,3,6,4,5,3,6,4,6,4,5,5,4,4,4,2,0.894995810852008
"DBYUQXXUIROK",5,"ratings1","M4","na",6,4070,".jpg",12,"M",-0.5,0.5,6,6,5,4,4,4,3,3,6,4,5,3,6,4,6,4,5,5,4,4,4,2,0.894995810852008
"DBYUQXXUIROK",5,"ratings1","M6","na",2,4640,".jpg",14,"M",-0.5,0.5,6,6,5,4,4,4,3,3,6,4,5,3,6,4,6,4,5,5,4,4,4,2,0.894995810852008
"DBYUQXXUIROK",5,"ratings1","B8","na",5,8416,".jpg",8,"B",0.5,0.5,6,6,5,4,4,4,3,3,6,4,5,3,6,4,6,4,5,5,4,4,4,2,0.894995810852008
"DDXZCAGSRKIU",2,"ratings1","B7","na",3,7112,".jpg",7,"B",-0.5,0.5,6,6,5,3,5,6,4,4,4,5,5,4,6,3,5,5,4,4,3,2,5,2,0.685595804366549
"DDXZCAGSRKIU",2,"ratings1","B4","na",5,9117,".jpg",4,"B",-0.5,0.5,6,6,5,3,5,6,4,4,4,5,5,4,6,3,5,5,4,4,3,2,5,2,0.685595804366549
"DDXZCAGSRKIU",2,"ratings1","M3","na",8,5246,".jpg",11,"M",0.5,0.5,6,6,5,3,5,6,4,4,4,5,5,4,6,3,5,5,4,4,3,2,5,2,0.685595804366549
"DDXZCAGSRKIU",2,"ratings1","B8","na",4,3287,".jpg",8,"B",-0.5,0.5,6,6,5,3,5,6,4,4,4,5,5,4,6,3,5,5,4,4,3,2,5,2,0.685595804366549
"DDXZCAGSRKIU",2,"ratings1","M7","na",7,4513,".jpg",15,"M",0.5,0.5,6,6,5,3,5,6,4,4,4,5,5,4,6,3,5,5,4,4,3,2,5,2,0.685595804366549
"DDXZCAGSRKIU",2,"ratings1","M8","na",8,5213,".jpg",16,"M",0.5,0.5,6,6,5,3,5,6,4,4,4,5,5,4,6,3,5,5,4,4,3,2,5,2,0.685595804366549
"DDXZCAGSRKIU",2,"ratings1","M4","na",9,5215,".jpg",12,"M",0.5,0.5,6,6,5,3,5,6,4,4,4,5,5,4,6,3,5,5,4,4,3,2,5,2,0.685595804366549
"DDXZCAGSRKIU",2,"ratings1","B3","na",1,3260,".jpg",3,"B",-0.5,0.5,6,6,5,3,5,6,4,4,4,5,5,4,6,3,5,5,4,4,3,2,5,2,0.685595804366549
"DDXZCAGSRKIU",2,"ratings1","B1","na",1,3032,".jpg",1,"B",-0.5,0.5,6,6,5,3,5,6,4,4,4,5,5,4,6,3,5,5,4,4,3,2,5,2,0.685595804366549
"DDXZCAGSRKIU",2,"ratings1","B2","na",2,3200,".jpg",2,"B",-0.5,0.5,6,6,5,3,5,6,4,4,4,5,5,4,6,3,5,5,4,4,3,2,5,2,0.685595804366549
"DDXZCAGSRKIU",2,"ratings1","M1","na",8,4263,".jpg",9,"M",0.5,0.5,6,6,5,3,5,6,4,4,4,5,5,4,6,3,5,5,4,4,3,2,5,2,0.685595804366549
"DDXZCAGSRKIU",2,"ratings1","M2","na",8,2216,".jpg",10,"M",0.5,0.5,6,6,5,3,5,6,4,4,4,5,5,4,6,3,5,5,4,4,3,2,5,2,0.685595804366549
"DDXZCAGSRKIU",2,"ratings1","B5","na",4,5103,".jpg",5,"B",-0.5,0.5,6,6,5,3,5,6,4,4,4,5,5,4,6,3,5,5,4,4,3,2,5,2,0.685595804366549
"DDXZCAGSRKIU",2,"ratings1","M5","na",7,6191,".jpg",13,"M",0.5,0.5,6,6,5,3,5,6,4,4,4,5,5,4,6,3,5,5,4,4,3,2,5,2,0.685595804366549
"DDXZCAGSRKIU",2,"ratings1","B6","na",6,11920,".jpg",6,"B",-0.5,0.5,6,6,5,3,5,6,4,4,4,5,5,4,6,3,5,5,4,4,3,2,5,2,0.685595804366549
"DDXZCAGSRKIU",2,"ratings1","M6","na",8,3711,".jpg",14,"M",0.5,0.5,6,6,5,3,5,6,4,4,4,5,5,4,6,3,5,5,4,4,3,2,5,2,0.685595804366549
"DKRCCRQVUAAC",7,"ratings1","B5","na",1,8660,".jpg",5,"B",0.5,-0.5,7,4,5,4,5,6,6,4,5,6,5,5,5,4,6,4,3,4,2,2,4,4,0.790295807609279
"DKRCCRQVUAAC",7,"ratings1","M5","na",9,3713,".jpg",13,"M",-0.5,-0.5,7,4,5,4,5,6,6,4,5,6,5,5,5,4,6,4,3,4,2,2,4,4,0.790295807609279
"DKRCCRQVUAAC",7,"ratings1","B1","na",2,1545,".jpg",1,"B",0.5,-0.5,7,4,5,4,5,6,6,4,5,6,5,5,5,4,6,4,3,4,2,2,4,4,0.790295807609279
"DKRCCRQVUAAC",7,"ratings1","B4","na",9,912,".jpg",4,"B",0.5,-0.5,7,4,5,4,5,6,6,4,5,6,5,5,5,4,6,4,3,4,2,2,4,4,0.790295807609279
"DKRCCRQVUAAC",7,"ratings1","M8","na",9,1129,".jpg",16,"M",-0.5,-0.5,7,4,5,4,5,6,6,4,5,6,5,5,5,4,6,4,3,4,2,2,4,4,0.790295807609279
"DKRCCRQVUAAC",7,"ratings1","M7","na",9,977,".jpg",15,"M",-0.5,-0.5,7,4,5,4,5,6,6,4,5,6,5,5,5,4,6,4,3,4,2,2,4,4,0.790295807609279
"DKRCCRQVUAAC",7,"ratings1","M6","na",9,522,".jpg",14,"M",-0.5,-0.5,7,4,5,4,5,6,6,4,5,6,5,5,5,4,6,4,3,4,2,2,4,4,0.790295807609279
"DKRCCRQVUAAC",7,"ratings1","B6","na",9,391,".jpg",6,"B",0.5,-0.5,7,4,5,4,5,6,6,4,5,6,5,5,5,4,6,4,3,4,2,2,4,4,0.790295807609279
"DKRCCRQVUAAC",7,"ratings1","B3","na",4,1441,".jpg",3,"B",0.5,-0.5,7,4,5,4,5,6,6,4,5,6,5,5,5,4,6,4,3,4,2,2,4,4,0.790295807609279
"DKRCCRQVUAAC",7,"ratings1","M3","na",5,391,".jpg",11,"M",-0.5,-0.5,7,4,5,4,5,6,6,4,5,6,5,5,5,4,6,4,3,4,2,2,4,4,0.790295807609279
"DKRCCRQVUAAC",7,"ratings1","M4","na",9,416,".jpg",12,"M",-0.5,-0.5,7,4,5,4,5,6,6,4,5,6,5,5,5,4,6,4,3,4,2,2,4,4,0.790295807609279
"DKRCCRQVUAAC",7,"ratings1","B7","na",5,377,".jpg",7,"B",0.5,-0.5,7,4,5,4,5,6,6,4,5,6,5,5,5,4,6,4,3,4,2,2,4,4,0.790295807609279
"DKRCCRQVUAAC",7,"ratings1","B2","na",9,312,".jpg",2,"B",0.5,-0.5,7,4,5,4,5,6,6,4,5,6,5,5,5,4,6,4,3,4,2,2,4,4,0.790295807609279
"DKRCCRQVUAAC",7,"ratings1","M2","na",4,400,".jpg",10,"M",-0.5,-0.5,7,4,5,4,5,6,6,4,5,6,5,5,5,4,6,4,3,4,2,2,4,4,0.790295807609279
"DKRCCRQVUAAC",7,"ratings1","B8","na",9,347,".jpg",8,"B",0.5,-0.5,7,4,5,4,5,6,6,4,5,6,5,5,5,4,6,4,3,4,2,2,4,4,0.790295807609279
"DKRCCRQVUAAC",7,"ratings1","M1","na",5,494,".jpg",9,"M",-0.5,-0.5,7,4,5,4,5,6,6,4,5,6,5,5,5,4,6,4,3,4,2,2,4,4,0.790295807609279
"DQFVFRZEJEIS",4,"ratings1","B7","na",2,14589,".jpg",7,"B",-0.5,-0.5,4,5,2,4,4,4,3,4,2,4,2,3,3,4,4,4,5,4,4,4,4,3,0.00504578328880631
"DQFVFRZEJEIS",4,"ratings1","B2","na",3,2753,".jpg",2,"B",-0.5,-0.5,4,5,2,4,4,4,3,4,2,4,2,3,3,4,4,4,5,4,4,4,4,3,0.00504578328880631
"DQFVFRZEJEIS",4,"ratings1","M7","na",7,2434,".jpg",15,"M",0.5,-0.5,4,5,2,4,4,4,3,4,2,4,2,3,3,4,4,4,5,4,4,4,4,3,0.00504578328880631
"DQFVFRZEJEIS",4,"ratings1","B5","na",4,1994,".jpg",5,"B",-0.5,-0.5,4,5,2,4,4,4,3,4,2,4,2,3,3,4,4,4,5,4,4,4,4,3,0.00504578328880631
"DQFVFRZEJEIS",4,"ratings1","B1","na",4,2109,".jpg",1,"B",-0.5,-0.5,4,5,2,4,4,4,3,4,2,4,2,3,3,4,4,4,5,4,4,4,4,3,0.00504578328880631
"DQFVFRZEJEIS",4,"ratings1","M6","na",7,3304,".jpg",14,"M",0.5,-0.5,4,5,2,4,4,4,3,4,2,4,2,3,3,4,4,4,5,4,4,4,4,3,0.00504578328880631
"DQFVFRZEJEIS",4,"ratings1","B8","na",5,1893,".jpg",8,"B",-0.5,-0.5,4,5,2,4,4,4,3,4,2,4,2,3,3,4,4,4,5,4,4,4,4,3,0.00504578328880631
"DQFVFRZEJEIS",4,"ratings1","M3","na",7,1933,".jpg",11,"M",0.5,-0.5,4,5,2,4,4,4,3,4,2,4,2,3,3,4,4,4,5,4,4,4,4,3,0.00504578328880631
"DQFVFRZEJEIS",4,"ratings1","M1","na",5,1611,".jpg",9,"M",0.5,-0.5,4,5,2,4,4,4,3,4,2,4,2,3,3,4,4,4,5,4,4,4,4,3,0.00504578328880631
"DQFVFRZEJEIS",4,"ratings1","B4","na",6,1575,".jpg",4,"B",-0.5,-0.5,4,5,2,4,4,4,3,4,2,4,2,3,3,4,4,4,5,4,4,4,4,3,0.00504578328880631
"DQFVFRZEJEIS",4,"ratings1","B3","na",5,1793,".jpg",3,"B",-0.5,-0.5,4,5,2,4,4,4,3,4,2,4,2,3,3,4,4,4,5,4,4,4,4,3,0.00504578328880631
"DQFVFRZEJEIS",4,"ratings1","M8","na",8,1863,".jpg",16,"M",0.5,-0.5,4,5,2,4,4,4,3,4,2,4,2,3,3,4,4,4,5,4,4,4,4,3,0.00504578328880631
"DQFVFRZEJEIS",4,"ratings1","M5","na",6,1958,".jpg",13,"M",0.5,-0.5,4,5,2,4,4,4,3,4,2,4,2,3,3,4,4,4,5,4,4,4,4,3,0.00504578328880631
"DQFVFRZEJEIS",4,"ratings1","B6","na",2,1958,".jpg",6,"B",-0.5,-0.5,4,5,2,4,4,4,3,4,2,4,2,3,3,4,4,4,5,4,4,4,4,3,0.00504578328880631
"DQFVFRZEJEIS",4,"ratings1","M2","na",7,2245,".jpg",10,"M",0.5,-0.5,4,5,2,4,4,4,3,4,2,4,2,3,3,4,4,4,5,4,4,4,4,3,0.00504578328880631
"DQFVFRZEJEIS",4,"ratings1","M4","na",5,1541,".jpg",12,"M",0.5,-0.5,4,5,2,4,4,4,3,4,2,4,2,3,3,4,4,4,5,4,4,4,4,3,0.00504578328880631
"DRYWKVBLBBFU",4,"ratings1","B8","na",9,4221,".jpg",8,"B",-0.5,-0.5,1,1,7,7,7,1,1,7,7,1,7,1,7,7,7,1,7,1,7,7,1,7,1.2090958205802
"DRYWKVBLBBFU",4,"ratings1","M8","na",1,993,".jpg",16,"M",0.5,-0.5,1,1,7,7,7,1,1,7,7,1,7,1,7,7,7,1,7,1,7,7,1,7,1.2090958205802
"DRYWKVBLBBFU",4,"ratings1","M4","na",1,796,".jpg",12,"M",0.5,-0.5,1,1,7,7,7,1,1,7,7,1,7,1,7,7,7,1,7,1,7,7,1,7,1.2090958205802
"DRYWKVBLBBFU",4,"ratings1","B1","na",9,798,".jpg",1,"B",-0.5,-0.5,1,1,7,7,7,1,1,7,7,1,7,1,7,7,7,1,7,1,7,7,1,7,1.2090958205802
"DRYWKVBLBBFU",4,"ratings1","M6","na",1,678,".jpg",14,"M",0.5,-0.5,1,1,7,7,7,1,1,7,7,1,7,1,7,7,7,1,7,1,7,7,1,7,1.2090958205802
"DRYWKVBLBBFU",4,"ratings1","M7","na",1,710,".jpg",15,"M",0.5,-0.5,1,1,7,7,7,1,1,7,7,1,7,1,7,7,7,1,7,1,7,7,1,7,1.2090958205802
"DRYWKVBLBBFU",4,"ratings1","B6","na",9,680,".jpg",6,"B",-0.5,-0.5,1,1,7,7,7,1,1,7,7,1,7,1,7,7,7,1,7,1,7,7,1,7,1.2090958205802
"DRYWKVBLBBFU",4,"ratings1","M1","na",1,490,".jpg",9,"M",0.5,-0.5,1,1,7,7,7,1,1,7,7,1,7,1,7,7,7,1,7,1,7,7,1,7,1.2090958205802
"DRYWKVBLBBFU",4,"ratings1","M3","na",9,429,".jpg",11,"M",0.5,-0.5,1,1,7,7,7,1,1,7,7,1,7,1,7,7,7,1,7,1,7,7,1,7,1.2090958205802
"DRYWKVBLBBFU",4,"ratings1","B2","na",9,561,".jpg",2,"B",-0.5,-0.5,1,1,7,7,7,1,1,7,7,1,7,1,7,7,7,1,7,1,7,7,1,7,1.2090958205802
"DRYWKVBLBBFU",4,"ratings1","B5","na",9,557,".jpg",5,"B",-0.5,-0.5,1,1,7,7,7,1,1,7,7,1,7,1,7,7,7,1,7,1,7,7,1,7,1.2090958205802
"DRYWKVBLBBFU",4,"ratings1","B4","na",9,472,".jpg",4,"B",-0.5,-0.5,1,1,7,7,7,1,1,7,7,1,7,1,7,7,7,1,7,1,7,7,1,7,1.2090958205802
"DRYWKVBLBBFU",4,"ratings1","B3","na",9,577,".jpg",3,"B",-0.5,-0.5,1,1,7,7,7,1,1,7,7,1,7,1,7,7,7,1,7,1,7,7,1,7,1.2090958205802
"DRYWKVBLBBFU",4,"ratings1","M2","na",1,1263,".jpg",10,"M",0.5,-0.5,1,1,7,7,7,1,1,7,7,1,7,1,7,7,7,1,7,1,7,7,1,7,1.2090958205802
"DRYWKVBLBBFU",4,"ratings1","M5","na",1,400,".jpg",13,"M",0.5,-0.5,1,1,7,7,7,1,1,7,7,1,7,1,7,7,7,1,7,1,7,7,1,7,1.2090958205802
"DRYWKVBLBBFU",4,"ratings1","B7","na",9,478,".jpg",7,"B",-0.5,-0.5,1,1,7,7,7,1,1,7,7,1,7,1,7,7,7,1,7,1,7,7,1,7,1.2090958205802
"DTRHQESSXTET",2,"ratings1","B3","na",6,3849,".jpg",3,"B",-0.5,0.5,1,7,1,7,1,7,1,7,1,1,1,6,1,1,1,7,2,1,7,1,1,1,-1.25135425562395
"DTRHQESSXTET",2,"ratings1","M5","na",6,1396,".jpg",13,"M",0.5,0.5,1,7,1,7,1,7,1,7,1,1,1,6,1,1,1,7,2,1,7,1,1,1,-1.25135425562395
"DTRHQESSXTET",2,"ratings1","B2","na",4,2701,".jpg",2,"B",-0.5,0.5,1,7,1,7,1,7,1,7,1,1,1,6,1,1,1,7,2,1,7,1,1,1,-1.25135425562395
"DTRHQESSXTET",2,"ratings1","M2","na",7,2045,".jpg",10,"M",0.5,0.5,1,7,1,7,1,7,1,7,1,1,1,6,1,1,1,7,2,1,7,1,1,1,-1.25135425562395
"DTRHQESSXTET",2,"ratings1","B7","na",4,772,".jpg",7,"B",-0.5,0.5,1,7,1,7,1,7,1,7,1,1,1,6,1,1,1,7,2,1,7,1,1,1,-1.25135425562395
"DTRHQESSXTET",2,"ratings1","M6","na",8,1088,".jpg",14,"M",0.5,0.5,1,7,1,7,1,7,1,7,1,1,1,6,1,1,1,7,2,1,7,1,1,1,-1.25135425562395
"DTRHQESSXTET",2,"ratings1","M7","na",8,693,".jpg",15,"M",0.5,0.5,1,7,1,7,1,7,1,7,1,1,1,6,1,1,1,7,2,1,7,1,1,1,-1.25135425562395
"DTRHQESSXTET",2,"ratings1","B1","na",2,1517,".jpg",1,"B",-0.5,0.5,1,7,1,7,1,7,1,7,1,1,1,6,1,1,1,7,2,1,7,1,1,1,-1.25135425562395
"DTRHQESSXTET",2,"ratings1","M4","na",8,968,".jpg",12,"M",0.5,0.5,1,7,1,7,1,7,1,7,1,1,1,6,1,1,1,7,2,1,7,1,1,1,-1.25135425562395
"DTRHQESSXTET",2,"ratings1","B8","na",4,2263,".jpg",8,"B",-0.5,0.5,1,7,1,7,1,7,1,7,1,1,1,6,1,1,1,7,2,1,7,1,1,1,-1.25135425562395
"DTRHQESSXTET",2,"ratings1","B5","na",2,874,".jpg",5,"B",-0.5,0.5,1,7,1,7,1,7,1,7,1,1,1,6,1,1,1,7,2,1,7,1,1,1,-1.25135425562395
"DTRHQESSXTET",2,"ratings1","M1","na",8,958,".jpg",9,"M",0.5,0.5,1,7,1,7,1,7,1,7,1,1,1,6,1,1,1,7,2,1,7,1,1,1,-1.25135425562395
"DTRHQESSXTET",2,"ratings1","M8","na",8,759,".jpg",16,"M",0.5,0.5,1,7,1,7,1,7,1,7,1,1,1,6,1,1,1,7,2,1,7,1,1,1,-1.25135425562395
"DTRHQESSXTET",2,"ratings1","B4","na",3,1429,".jpg",4,"B",-0.5,0.5,1,7,1,7,1,7,1,7,1,1,1,6,1,1,1,7,2,1,7,1,1,1,-1.25135425562395
"DTRHQESSXTET",2,"ratings1","B6","na",4,1565,".jpg",6,"B",-0.5,0.5,1,7,1,7,1,7,1,7,1,1,1,6,1,1,1,7,2,1,7,1,1,1,-1.25135425562395
"DTRHQESSXTET",2,"ratings1","M3","na",8,733,".jpg",11,"M",0.5,0.5,1,7,1,7,1,7,1,7,1,1,1,6,1,1,1,7,2,1,7,1,1,1,-1.25135425562395
"DUNNJPRERMUR",6,"ratings1","B7","na",6,1380,".jpg",7,"B",-0.5,0.5,4,2,3,7,4,4,6,3,3,7,6,6,7,4,4,4,2,5,1,4,1,6,0.423845796259725
"DUNNJPRERMUR",6,"ratings1","M7","na",4,406,".jpg",15,"M",0.5,0.5,4,2,3,7,4,4,6,3,3,7,6,6,7,4,4,4,2,5,1,4,1,6,0.423845796259725
"DUNNJPRERMUR",6,"ratings1","M2","na",8,306,".jpg",10,"M",0.5,0.5,4,2,3,7,4,4,6,3,3,7,6,6,7,4,4,4,2,5,1,4,1,6,0.423845796259725
"DUNNJPRERMUR",6,"ratings1","B6","na",3,277,".jpg",6,"B",-0.5,0.5,4,2,3,7,4,4,6,3,3,7,6,6,7,4,4,4,2,5,1,4,1,6,0.423845796259725
"DUNNJPRERMUR",6,"ratings1","M1","na",7,307,".jpg",9,"M",0.5,0.5,4,2,3,7,4,4,6,3,3,7,6,6,7,4,4,4,2,5,1,4,1,6,0.423845796259725
"DUNNJPRERMUR",6,"ratings1","M4","na",2,269,".jpg",12,"M",0.5,0.5,4,2,3,7,4,4,6,3,3,7,6,6,7,4,4,4,2,5,1,4,1,6,0.423845796259725
"DUNNJPRERMUR",6,"ratings1","B2","na",8,333,".jpg",2,"B",-0.5,0.5,4,2,3,7,4,4,6,3,3,7,6,6,7,4,4,4,2,5,1,4,1,6,0.423845796259725
"DUNNJPRERMUR",6,"ratings1","B1","na",6,257,".jpg",1,"B",-0.5,0.5,4,2,3,7,4,4,6,3,3,7,6,6,7,4,4,4,2,5,1,4,1,6,0.423845796259725
"DUNNJPRERMUR",6,"ratings1","B5","na",7,306,".jpg",5,"B",-0.5,0.5,4,2,3,7,4,4,6,3,3,7,6,6,7,4,4,4,2,5,1,4,1,6,0.423845796259725
"DUNNJPRERMUR",6,"ratings1","M6","na",5,148,".jpg",14,"M",0.5,0.5,4,2,3,7,4,4,6,3,3,7,6,6,7,4,4,4,2,5,1,4,1,6,0.423845796259725
"DUNNJPRERMUR",6,"ratings1","B8","na",4,296,".jpg",8,"B",-0.5,0.5,4,2,3,7,4,4,6,3,3,7,6,6,7,4,4,4,2,5,1,4,1,6,0.423845796259725
"DUNNJPRERMUR",6,"ratings1","B4","na",7,156,".jpg",4,"B",-0.5,0.5,4,2,3,7,4,4,6,3,3,7,6,6,7,4,4,4,2,5,1,4,1,6,0.423845796259725
"DUNNJPRERMUR",6,"ratings1","B3","na",5,150,".jpg",3,"B",-0.5,0.5,4,2,3,7,4,4,6,3,3,7,6,6,7,4,4,4,2,5,1,4,1,6,0.423845796259725
"DUNNJPRERMUR",6,"ratings1","M8","na",7,89,".jpg",16,"M",0.5,0.5,4,2,3,7,4,4,6,3,3,7,6,6,7,4,4,4,2,5,1,4,1,6,0.423845796259725
"DUNNJPRERMUR",6,"ratings1","M5","na",3,118,".jpg",13,"M",0.5,0.5,4,2,3,7,4,4,6,3,3,7,6,6,7,4,4,4,2,5,1,4,1,6,0.423845796259725
"DUNNJPRERMUR",6,"ratings1","M3","na",7,76,".jpg",11,"M",0.5,0.5,4,2,3,7,4,4,6,3,3,7,6,6,7,4,4,4,2,5,1,4,1,6,0.423845796259725
"EBSZBGTPAWUF",1,"ratings1","M8","na",5,13595,".jpg",16,"M",-0.5,0.5,5,2,7,5,5,6,1,2,7,2,6,6,6,1,3,7,2,6,6,2,3,6,1.0520458157161
"EBSZBGTPAWUF",1,"ratings1","M2","na",5,650,".jpg",10,"M",-0.5,0.5,5,2,7,5,5,6,1,2,7,2,6,6,6,1,3,7,2,6,6,2,3,6,1.0520458157161
"EBSZBGTPAWUF",1,"ratings1","B3","na",5,1603,".jpg",3,"B",0.5,0.5,5,2,7,5,5,6,1,2,7,2,6,6,6,1,3,7,2,6,6,2,3,6,1.0520458157161
"EBSZBGTPAWUF",1,"ratings1","B1","na",5,515,".jpg",1,"B",0.5,0.5,5,2,7,5,5,6,1,2,7,2,6,6,6,1,3,7,2,6,6,2,3,6,1.0520458157161
"EBSZBGTPAWUF",1,"ratings1","M3","na",5,314,".jpg",11,"M",-0.5,0.5,5,2,7,5,5,6,1,2,7,2,6,6,6,1,3,7,2,6,6,2,3,6,1.0520458157161
"EBSZBGTPAWUF",1,"ratings1","B8","na",5,285,".jpg",8,"B",0.5,0.5,5,2,7,5,5,6,1,2,7,2,6,6,6,1,3,7,2,6,6,2,3,6,1.0520458157161
"EBSZBGTPAWUF",1,"ratings1","B4","na",5,300,".jpg",4,"B",0.5,0.5,5,2,7,5,5,6,1,2,7,2,6,6,6,1,3,7,2,6,6,2,3,6,1.0520458157161
"EBSZBGTPAWUF",1,"ratings1","B5","na",5,332,".jpg",5,"B",0.5,0.5,5,2,7,5,5,6,1,2,7,2,6,6,6,1,3,7,2,6,6,2,3,6,1.0520458157161
"EBSZBGTPAWUF",1,"ratings1","M1","na",3,1323,".jpg",9,"M",-0.5,0.5,5,2,7,5,5,6,1,2,7,2,6,6,6,1,3,7,2,6,6,2,3,6,1.0520458157161
"EBSZBGTPAWUF",1,"ratings1","B6","na",3,333,".jpg",6,"B",0.5,0.5,5,2,7,5,5,6,1,2,7,2,6,6,6,1,3,7,2,6,6,2,3,6,1.0520458157161
"EBSZBGTPAWUF",1,"ratings1","M5","na",3,322,".jpg",13,"M",-0.5,0.5,5,2,7,5,5,6,1,2,7,2,6,6,6,1,3,7,2,6,6,2,3,6,1.0520458157161
"EBSZBGTPAWUF",1,"ratings1","M6","na",3,314,".jpg",14,"M",-0.5,0.5,5,2,7,5,5,6,1,2,7,2,6,6,6,1,3,7,2,6,6,2,3,6,1.0520458157161
"EBSZBGTPAWUF",1,"ratings1","M4","na",3,235,".jpg",12,"M",-0.5,0.5,5,2,7,5,5,6,1,2,7,2,6,6,6,1,3,7,2,6,6,2,3,6,1.0520458157161
"EBSZBGTPAWUF",1,"ratings1","M7","na",3,259,".jpg",15,"M",-0.5,0.5,5,2,7,5,5,6,1,2,7,2,6,6,6,1,3,7,2,6,6,2,3,6,1.0520458157161
"EBSZBGTPAWUF",1,"ratings1","B2","na",3,203,".jpg",2,"B",0.5,0.5,5,2,7,5,5,6,1,2,7,2,6,6,6,1,3,7,2,6,6,2,3,6,1.0520458157161
"EBSZBGTPAWUF",1,"ratings1","B7","na",3,234,".jpg",7,"B",0.5,0.5,5,2,7,5,5,6,1,2,7,2,6,6,6,1,3,7,2,6,6,2,3,6,1.0520458157161
"EFTHLINOFDMR",5,"ratings1","B8","na",3,3955,".jpg",8,"B",0.5,0.5,2,7,3,7,1,7,1,7,5,7,1,7,2,7,1,1,1,1,1,1,1,1,-1.51310426373077
"EFTHLINOFDMR",5,"ratings1","B3","na",8,1672,".jpg",3,"B",0.5,0.5,2,7,3,7,1,7,1,7,5,7,1,7,2,7,1,1,1,1,1,1,1,1,-1.51310426373077
"EFTHLINOFDMR",5,"ratings1","B1","na",8,783,".jpg",1,"B",0.5,0.5,2,7,3,7,1,7,1,7,5,7,1,7,2,7,1,1,1,1,1,1,1,1,-1.51310426373077
"EFTHLINOFDMR",5,"ratings1","B5","na",9,896,".jpg",5,"B",0.5,0.5,2,7,3,7,1,7,1,7,5,7,1,7,2,7,1,1,1,1,1,1,1,1,-1.51310426373077
"EFTHLINOFDMR",5,"ratings1","B7","na",8,1111,".jpg",7,"B",0.5,0.5,2,7,3,7,1,7,1,7,5,7,1,7,2,7,1,1,1,1,1,1,1,1,-1.51310426373077
"EFTHLINOFDMR",5,"ratings1","B4","na",9,1181,".jpg",4,"B",0.5,0.5,2,7,3,7,1,7,1,7,5,7,1,7,2,7,1,1,1,1,1,1,1,1,-1.51310426373077
"EFTHLINOFDMR",5,"ratings1","M8","na",1,1180,".jpg",16,"M",-0.5,0.5,2,7,3,7,1,7,1,7,5,7,1,7,2,7,1,1,1,1,1,1,1,1,-1.51310426373077
"EFTHLINOFDMR",5,"ratings1","M7","na",3,1054,".jpg",15,"M",-0.5,0.5,2,7,3,7,1,7,1,7,5,7,1,7,2,7,1,1,1,1,1,1,1,1,-1.51310426373077
"EFTHLINOFDMR",5,"ratings1","M2","na",2,886,".jpg",10,"M",-0.5,0.5,2,7,3,7,1,7,1,7,5,7,1,7,2,7,1,1,1,1,1,1,1,1,-1.51310426373077
"EFTHLINOFDMR",5,"ratings1","M4","na",3,1198,".jpg",12,"M",-0.5,0.5,2,7,3,7,1,7,1,7,5,7,1,7,2,7,1,1,1,1,1,1,1,1,-1.51310426373077
"EFTHLINOFDMR",5,"ratings1","M1","na",2,1059,".jpg",9,"M",-0.5,0.5,2,7,3,7,1,7,1,7,5,7,1,7,2,7,1,1,1,1,1,1,1,1,-1.51310426373077
"EFTHLINOFDMR",5,"ratings1","B6","na",7,1356,".jpg",6,"B",0.5,0.5,2,7,3,7,1,7,1,7,5,7,1,7,2,7,1,1,1,1,1,1,1,1,-1.51310426373077
"EFTHLINOFDMR",5,"ratings1","M3","na",1,1335,".jpg",11,"M",-0.5,0.5,2,7,3,7,1,7,1,7,5,7,1,7,2,7,1,1,1,1,1,1,1,1,-1.51310426373077
"EFTHLINOFDMR",5,"ratings1","B2","na",8,1350,".jpg",2,"B",0.5,0.5,2,7,3,7,1,7,1,7,5,7,1,7,2,7,1,1,1,1,1,1,1,1,-1.51310426373077
"EFTHLINOFDMR",5,"ratings1","M5","na",1,965,".jpg",13,"M",-0.5,0.5,2,7,3,7,1,7,1,7,5,7,1,7,2,7,1,1,1,1,1,1,1,1,-1.51310426373077
"EFTHLINOFDMR",5,"ratings1","M6","na",4,1678,".jpg",14,"M",-0.5,0.5,2,7,3,7,1,7,1,7,5,7,1,7,2,7,1,1,1,1,1,1,1,1,-1.51310426373077
"EGNVBXWCRDDC",1,"ratings1","B2","na",4,11190,".jpg",2,"B",0.5,0.5,7,7,1,5,7,5,1,1,7,5,5,5,7,7,7,1,3,7,3,3,3,1,0.580895801123819
"EGNVBXWCRDDC",1,"ratings1","B3","na",4,2230,".jpg",3,"B",0.5,0.5,7,7,1,5,7,5,1,1,7,5,5,5,7,7,7,1,3,7,3,3,3,1,0.580895801123819
"EGNVBXWCRDDC",1,"ratings1","M4","na",5,374,".jpg",12,"M",-0.5,0.5,7,7,1,5,7,5,1,1,7,5,5,5,7,7,7,1,3,7,3,3,3,1,0.580895801123819
"EGNVBXWCRDDC",1,"ratings1","B7","na",6,1759,".jpg",7,"B",0.5,0.5,7,7,1,5,7,5,1,1,7,5,5,5,7,7,7,1,3,7,3,3,3,1,0.580895801123819
"EGNVBXWCRDDC",1,"ratings1","M2","na",5,303,".jpg",10,"M",-0.5,0.5,7,7,1,5,7,5,1,1,7,5,5,5,7,7,7,1,3,7,3,3,3,1,0.580895801123819
"EGNVBXWCRDDC",1,"ratings1","B8","na",4,473,".jpg",8,"B",0.5,0.5,7,7,1,5,7,5,1,1,7,5,5,5,7,7,7,1,3,7,3,3,3,1,0.580895801123819
"EGNVBXWCRDDC",1,"ratings1","B1","na",5,1815,".jpg",1,"B",0.5,0.5,7,7,1,5,7,5,1,1,7,5,5,5,7,7,7,1,3,7,3,3,3,1,0.580895801123819
"EGNVBXWCRDDC",1,"ratings1","M6","na",4,480,".jpg",14,"M",-0.5,0.5,7,7,1,5,7,5,1,1,7,5,5,5,7,7,7,1,3,7,3,3,3,1,0.580895801123819
"EGNVBXWCRDDC",1,"ratings1","M3","na",5,1166,".jpg",11,"M",-0.5,0.5,7,7,1,5,7,5,1,1,7,5,5,5,7,7,7,1,3,7,3,3,3,1,0.580895801123819
"EGNVBXWCRDDC",1,"ratings1","B4","na",6,3272,".jpg",4,"B",0.5,0.5,7,7,1,5,7,5,1,1,7,5,5,5,7,7,7,1,3,7,3,3,3,1,0.580895801123819
"EGNVBXWCRDDC",1,"ratings1","M5","na",4,1662,".jpg",13,"M",-0.5,0.5,7,7,1,5,7,5,1,1,7,5,5,5,7,7,7,1,3,7,3,3,3,1,0.580895801123819
"EGNVBXWCRDDC",1,"ratings1","M7","na",5,2745,".jpg",15,"M",-0.5,0.5,7,7,1,5,7,5,1,1,7,5,5,5,7,7,7,1,3,7,3,3,3,1,0.580895801123819
"EGNVBXWCRDDC",1,"ratings1","M1","na",3,1284,".jpg",9,"M",-0.5,0.5,7,7,1,5,7,5,1,1,7,5,5,5,7,7,7,1,3,7,3,3,3,1,0.580895801123819
"EGNVBXWCRDDC",1,"ratings1","B5","na",6,1440,".jpg",5,"B",0.5,0.5,7,7,1,5,7,5,1,1,7,5,5,5,7,7,7,1,3,7,3,3,3,1,0.580895801123819
"EGNVBXWCRDDC",1,"ratings1","M8","na",5,677,".jpg",16,"M",-0.5,0.5,7,7,1,5,7,5,1,1,7,5,5,5,7,7,7,1,3,7,3,3,3,1,0.580895801123819
"EGNVBXWCRDDC",1,"ratings1","B6","na",4,401,".jpg",6,"B",0.5,0.5,7,7,1,5,7,5,1,1,7,5,5,5,7,7,7,1,3,7,3,3,3,1,0.580895801123819
"EIQJBKTLAXYL",1,"ratings1","M2","na",8,11364,".jpg",10,"M",-0.5,0.5,7,5,7,6,4,7,7,5,6,6,6,6,6,7,7,1,2,3,2,1,2,3,0.633245802745184
"EIQJBKTLAXYL",1,"ratings1","B6","na",7,3627,".jpg",6,"B",0.5,0.5,7,5,7,6,4,7,7,5,6,6,6,6,6,7,7,1,2,3,2,1,2,3,0.633245802745184
"EIQJBKTLAXYL",1,"ratings1","B2","na",8,525,".jpg",2,"B",0.5,0.5,7,5,7,6,4,7,7,5,6,6,6,6,6,7,7,1,2,3,2,1,2,3,0.633245802745184
"EIQJBKTLAXYL",1,"ratings1","B3","na",9,1814,".jpg",3,"B",0.5,0.5,7,5,7,6,4,7,7,5,6,6,6,6,6,7,7,1,2,3,2,1,2,3,0.633245802745184
"EIQJBKTLAXYL",1,"ratings1","B1","na",6,1574,".jpg",1,"B",0.5,0.5,7,5,7,6,4,7,7,5,6,6,6,6,6,7,7,1,2,3,2,1,2,3,0.633245802745184
"EIQJBKTLAXYL",1,"ratings1","M4","na",7,346,".jpg",12,"M",-0.5,0.5,7,5,7,6,4,7,7,5,6,6,6,6,6,7,7,1,2,3,2,1,2,3,0.633245802745184
"EIQJBKTLAXYL",1,"ratings1","M8","na",8,560,".jpg",16,"M",-0.5,0.5,7,5,7,6,4,7,7,5,6,6,6,6,6,7,7,1,2,3,2,1,2,3,0.633245802745184
"EIQJBKTLAXYL",1,"ratings1","M7","na",9,471,".jpg",15,"M",-0.5,0.5,7,5,7,6,4,7,7,5,6,6,6,6,6,7,7,1,2,3,2,1,2,3,0.633245802745184
"EIQJBKTLAXYL",1,"ratings1","B5","na",9,640,".jpg",5,"B",0.5,0.5,7,5,7,6,4,7,7,5,6,6,6,6,6,7,7,1,2,3,2,1,2,3,0.633245802745184
"EIQJBKTLAXYL",1,"ratings1","B8","na",9,2038,".jpg",8,"B",0.5,0.5,7,5,7,6,4,7,7,5,6,6,6,6,6,7,7,1,2,3,2,1,2,3,0.633245802745184
"EIQJBKTLAXYL",1,"ratings1","M1","na",9,1269,".jpg",9,"M",-0.5,0.5,7,5,7,6,4,7,7,5,6,6,6,6,6,7,7,1,2,3,2,1,2,3,0.633245802745184
"EIQJBKTLAXYL",1,"ratings1","B7","na",8,2663,".jpg",7,"B",0.5,0.5,7,5,7,6,4,7,7,5,6,6,6,6,6,7,7,1,2,3,2,1,2,3,0.633245802745184
"EIQJBKTLAXYL",1,"ratings1","M3","na",7,2100,".jpg",11,"M",-0.5,0.5,7,5,7,6,4,7,7,5,6,6,6,6,6,7,7,1,2,3,2,1,2,3,0.633245802745184
"EIQJBKTLAXYL",1,"ratings1","B4","na",8,634,".jpg",4,"B",0.5,0.5,7,5,7,6,4,7,7,5,6,6,6,6,6,7,7,1,2,3,2,1,2,3,0.633245802745184
"EIQJBKTLAXYL",1,"ratings1","M6","na",8,1279,".jpg",14,"M",-0.5,0.5,7,5,7,6,4,7,7,5,6,6,6,6,6,7,7,1,2,3,2,1,2,3,0.633245802745184
"EIQJBKTLAXYL",1,"ratings1","M5","na",7,405,".jpg",13,"M",-0.5,0.5,7,5,7,6,4,7,7,5,6,6,6,6,6,7,7,1,2,3,2,1,2,3,0.633245802745184
"ESQKAXEKAQGI",6,"ratings1","B4","na",1,4898,".jpg",4,"B",-0.5,0.5,5,6,6,5,4,1,6,6,2,5,5,4,5,7,7,1,4,2,3,7,3,2,0.528545799502455
"ESQKAXEKAQGI",6,"ratings1","B8","na",1,3566,".jpg",8,"B",-0.5,0.5,5,6,6,5,4,1,6,6,2,5,5,4,5,7,7,1,4,2,3,7,3,2,0.528545799502455
"ESQKAXEKAQGI",6,"ratings1","B3","na",1,2215,".jpg",3,"B",-0.5,0.5,5,6,6,5,4,1,6,6,2,5,5,4,5,7,7,1,4,2,3,7,3,2,0.528545799502455
"ESQKAXEKAQGI",6,"ratings1","B5","na",4,2800,".jpg",5,"B",-0.5,0.5,5,6,6,5,4,1,6,6,2,5,5,4,5,7,7,1,4,2,3,7,3,2,0.528545799502455
"ESQKAXEKAQGI",6,"ratings1","B7","na",2,2334,".jpg",7,"B",-0.5,0.5,5,6,6,5,4,1,6,6,2,5,5,4,5,7,7,1,4,2,3,7,3,2,0.528545799502455
"ESQKAXEKAQGI",6,"ratings1","M4","na",9,1687,".jpg",12,"M",0.5,0.5,5,6,6,5,4,1,6,6,2,5,5,4,5,7,7,1,4,2,3,7,3,2,0.528545799502455
"ESQKAXEKAQGI",6,"ratings1","M5","na",8,1551,".jpg",13,"M",0.5,0.5,5,6,6,5,4,1,6,6,2,5,5,4,5,7,7,1,4,2,3,7,3,2,0.528545799502455
"ESQKAXEKAQGI",6,"ratings1","M3","na",9,831,".jpg",11,"M",0.5,0.5,5,6,6,5,4,1,6,6,2,5,5,4,5,7,7,1,4,2,3,7,3,2,0.528545799502455
"ESQKAXEKAQGI",6,"ratings1","B6","na",9,935,".jpg",6,"B",-0.5,0.5,5,6,6,5,4,1,6,6,2,5,5,4,5,7,7,1,4,2,3,7,3,2,0.528545799502455
"ESQKAXEKAQGI",6,"ratings1","M7","na",8,640,".jpg",15,"M",0.5,0.5,5,6,6,5,4,1,6,6,2,5,5,4,5,7,7,1,4,2,3,7,3,2,0.528545799502455
"ESQKAXEKAQGI",6,"ratings1","M2","na",9,1543,".jpg",10,"M",0.5,0.5,5,6,6,5,4,1,6,6,2,5,5,4,5,7,7,1,4,2,3,7,3,2,0.528545799502455
"ESQKAXEKAQGI",6,"ratings1","M1","na",8,824,".jpg",9,"M",0.5,0.5,5,6,6,5,4,1,6,6,2,5,5,4,5,7,7,1,4,2,3,7,3,2,0.528545799502455
"ESQKAXEKAQGI",6,"ratings1","M6","na",8,607,".jpg",14,"M",0.5,0.5,5,6,6,5,4,1,6,6,2,5,5,4,5,7,7,1,4,2,3,7,3,2,0.528545799502455
"ESQKAXEKAQGI",6,"ratings1","B2","na",1,2215,".jpg",2,"B",-0.5,0.5,5,6,6,5,4,1,6,6,2,5,5,4,5,7,7,1,4,2,3,7,3,2,0.528545799502455
"ESQKAXEKAQGI",6,"ratings1","B1","na",5,1583,".jpg",1,"B",-0.5,0.5,5,6,6,5,4,1,6,6,2,5,5,4,5,7,7,1,4,2,3,7,3,2,0.528545799502455
"ESQKAXEKAQGI",6,"ratings1","M8","na",9,1704,".jpg",16,"M",0.5,0.5,5,6,6,5,4,1,6,6,2,5,5,4,5,7,7,1,4,2,3,7,3,2,0.528545799502455
"EXSHUUQBLEVS",5,"ratings1","M5","na",2,3318,".jpg",13,"M",-0.5,0.5,1,7,2,7,1,7,1,5,4,7,4,7,1,6,2,2,1,3,1,1,1,1,-1.35605425886668
"EXSHUUQBLEVS",5,"ratings1","M7","na",3,364,".jpg",15,"M",-0.5,0.5,1,7,2,7,1,7,1,5,4,7,4,7,1,6,2,2,1,3,1,1,1,1,-1.35605425886668
"EXSHUUQBLEVS",5,"ratings1","B2","na",5,1505,".jpg",2,"B",0.5,0.5,1,7,2,7,1,7,1,5,4,7,4,7,1,6,2,2,1,3,1,1,1,1,-1.35605425886668
"EXSHUUQBLEVS",5,"ratings1","B4","na",4,458,".jpg",4,"B",0.5,0.5,1,7,2,7,1,7,1,5,4,7,4,7,1,6,2,2,1,3,1,1,1,1,-1.35605425886668
"EXSHUUQBLEVS",5,"ratings1","M3","na",5,354,".jpg",11,"M",-0.5,0.5,1,7,2,7,1,7,1,5,4,7,4,7,1,6,2,2,1,3,1,1,1,1,-1.35605425886668
"EXSHUUQBLEVS",5,"ratings1","M2","na",6,140,".jpg",10,"M",-0.5,0.5,1,7,2,7,1,7,1,5,4,7,4,7,1,6,2,2,1,3,1,1,1,1,-1.35605425886668
"EXSHUUQBLEVS",5,"ratings1","M1","na",3,26,".jpg",9,"M",-0.5,0.5,1,7,2,7,1,7,1,5,4,7,4,7,1,6,2,2,1,3,1,1,1,1,-1.35605425886668
"EXSHUUQBLEVS",5,"ratings1","B7","na",5,993,".jpg",7,"B",0.5,0.5,1,7,2,7,1,7,1,5,4,7,4,7,1,6,2,2,1,3,1,1,1,1,-1.35605425886668
"EXSHUUQBLEVS",5,"ratings1","B8","na",4,532,".jpg",8,"B",0.5,0.5,1,7,2,7,1,7,1,5,4,7,4,7,1,6,2,2,1,3,1,1,1,1,-1.35605425886668
"EXSHUUQBLEVS",5,"ratings1","M6","na",2,984,".jpg",14,"M",-0.5,0.5,1,7,2,7,1,7,1,5,4,7,4,7,1,6,2,2,1,3,1,1,1,1,-1.35605425886668
"EXSHUUQBLEVS",5,"ratings1","B3","na",4,985,".jpg",3,"B",0.5,0.5,1,7,2,7,1,7,1,5,4,7,4,7,1,6,2,2,1,3,1,1,1,1,-1.35605425886668
"EXSHUUQBLEVS",5,"ratings1","B5","na",3,1005,".jpg",5,"B",0.5,0.5,1,7,2,7,1,7,1,5,4,7,4,7,1,6,2,2,1,3,1,1,1,1,-1.35605425886668
"EXSHUUQBLEVS",5,"ratings1","B6","na",5,794,".jpg",6,"B",0.5,0.5,1,7,2,7,1,7,1,5,4,7,4,7,1,6,2,2,1,3,1,1,1,1,-1.35605425886668
"EXSHUUQBLEVS",5,"ratings1","M8","na",4,1313,".jpg",16,"M",-0.5,0.5,1,7,2,7,1,7,1,5,4,7,4,7,1,6,2,2,1,3,1,1,1,1,-1.35605425886668
"EXSHUUQBLEVS",5,"ratings1","M4","na",5,665,".jpg",12,"M",-0.5,0.5,1,7,2,7,1,7,1,5,4,7,4,7,1,6,2,2,1,3,1,1,1,1,-1.35605425886668
"EXSHUUQBLEVS",5,"ratings1","B1","na",3,737,".jpg",1,"B",0.5,0.5,1,7,2,7,1,7,1,5,4,7,4,7,1,6,2,2,1,3,1,1,1,1,-1.35605425886668
"FFBJSIBHFJCF",1,"ratings1","B3","na",5,2292,".jpg",3,"B",0.5,0.5,1,7,1,7,1,7,1,7,1,7,1,7,1,7,1,1,1,1,1,1,1,1,-1.93190427670169
"FFBJSIBHFJCF",1,"ratings1","M8","na",5,431,".jpg",16,"M",-0.5,0.5,1,7,1,7,1,7,1,7,1,7,1,7,1,7,1,1,1,1,1,1,1,1,-1.93190427670169
"FFBJSIBHFJCF",1,"ratings1","M2","na",5,761,".jpg",10,"M",-0.5,0.5,1,7,1,7,1,7,1,7,1,7,1,7,1,7,1,1,1,1,1,1,1,1,-1.93190427670169
"FFBJSIBHFJCF",1,"ratings1","M5","na",5,393,".jpg",13,"M",-0.5,0.5,1,7,1,7,1,7,1,7,1,7,1,7,1,7,1,1,1,1,1,1,1,1,-1.93190427670169
"FFBJSIBHFJCF",1,"ratings1","B5","na",5,305,".jpg",5,"B",0.5,0.5,1,7,1,7,1,7,1,7,1,7,1,7,1,7,1,1,1,1,1,1,1,1,-1.93190427670169
